time	leftRight	frontBack	up	angular	State	Battery_level	Magnetometer_x	Magnetometer_y	Magnetometer_z	Pressure	Temperature	Wind_speed	Wind_angle	Wind_compensation:pitch	Wind_compensation:roll	Pitch_y	Roll_x	Yaw_z	Altitude	Velocity_x	Velocity_y	Velocity_z	Acceleration_x	Acceleration_y	Acceleration_z	Motor_1_power	Motor_2_power	Motor_3_power	Motor_4_power	time_board
2016-03-31 12:29:28.900	0.0	-0.25	0.0	0.0	7.0	83.0	-60.2	14.2	-95.8	98490.2	531.0	0.0	0.0	0.0	0.0	-7.2	-11.5	-104263.9	0.0	0.018866884941235184	0.27090864777565005	0.0	2048.0	2047.2	2567.6	70.0	70.0	70.0	70.0	1515959599187.8
2016-03-31 12:29:28.950	0.0	-0.25	0.0	0.0	7.0	83.0	-59.2	11.6	-92.8	98493.5	531.0	0.0	0.0	0.0	0.0	-8.8	-16.7	-104265.6	0.0	0.06669864952564239	0.07184694465249777	0.0	2047.2	2047.6	2565.6	70.0	70.0	70.0	70.0	1515983949291.5
2016-03-31 12:29:29.000	0.0	-0.25	0.0	0.0	7.0	83.0	-58.2	13.0	-91.0	98489.9	531.0	0.0	0.0	0.0	0.0	-14.3	-19.1	-104265.7	0.0	-0.1733435455709696	-0.12510007284581662	0.0	2047.6	2048.0	2568.0	70.0	70.0	70.0	70.0	1516275699401.4
2016-03-31 12:29:29.050	0.0	-0.25	0.0	0.0	7.0	83.0	-57.6	11.6	-92.4	98487.8	531.0	0.0	0.0	0.0	0.0	-14.3	-20.7	-104266.7	0.0	0.10000818017870187	-0.22238106578588485	0.0	2048.0	2048.0	2568.0	70.0	70.0	70.0	70.0	1516567749615.1
2016-03-31 12:29:29.100	0.0	-0.25	0.0	0.0	7.0	83.0	-57.55555555555556	13.333333333333334	-93.33333333333333	98485.33333333333	531.0	0.0	0.0	0.0	0.0	-15.444444444444445	-22.22222222222222	-104265.77777777778	0.0	0.17153419057528177	-0.2588551276259952	0.0	2047.5555555555557	2048.0	2567.1111111111113	70.0	70.0	70.0	70.0	1516591097235.2222
2016-03-31 12:29:29.150	0.0	-0.25	0.0	0.0	7.0	83.0	-60.0	13.636363636363637	-92.54545454545455	98490.09090909091	531.0	0.0	0.0	0.0	0.0	-17.454545454545453	-25.09090909090909	-104266.81818181818	0.0	0.14510530538179658	-0.2760730656710538	0.0	2048.0	2048.0	2566.181818181818	70.0	70.0	70.0	70.0	1516615692815.182
2016-03-31 12:29:29.200	0.0	-0.25	0.0	0.0	7.0	83.0	-60.4	12.4	-93.6	98491.7	531.0	0.0	0.0	0.0	0.0	-24.6	-29.2	-104268.4	0.0	-0.3508663665503263	-0.3245542734861374	0.0	2044.4	2048.0	2566.0	70.0	70.0	70.0	70.0	1516641400008.6
2016-03-31 12:29:29.250	0.0	-0.25	0.0	0.0	7.0	83.0	-54.888888888888886	7.111111111111111	-90.22222222222223	98492.33333333333	531.0	0.0	0.0	0.0	0.0	-31.22222222222222	-28.0	-104269.44444444444	0.0	-0.2322576484746403	-0.5311001473002963	0.0	2048.4444444444443	2049.777777777778	2564.8888888888887	70.0	70.0	70.0	70.0	1516666584899.3333
2016-03-31 12:29:29.300	0.0	-0.25	0.0	0.0	7.0	83.0	-79.44444444444444	5.222222222222222	-88.55555555555556	98488.88888888889	531.0	0.0	0.0	0.0	0.0	-10.333333333333334	-19.22222222222222	-104321.77777777778	0.0	0.6465999020470513	-1.1116348372565374	0.0	2048.4444444444443	2053.777777777778	2567.5555555555557	70.0	70.0	70.0	70.0	1516689297817.111
2016-03-31 12:29:29.350	0.0	-0.25	0.0	0.0	7.0	83.0	-86.45454545454545	6.454545454545454	-90.63636363636364	98491.72727272728	531.0	0.0	0.0	0.0	0.0	-26.636363636363637	-24.636363636363637	-104425.90909090909	0.0	0.9597651281140067	-0.2181197479367256	0.0	2050.181818181818	2041.8181818181818	2568.7272727272725	70.0	70.0	70.0	70.0	1516713711641.4546
2016-03-31 12:29:29.400	0.0	-0.25	0.0	0.0	7.0	83.0	-79.55555555555556	3.5555555555555554	-91.77777777777777	98489.0	531.0	0.0	0.0	0.0	0.0	-17.22222222222222	-42.22222222222222	-104409.66666666667	0.0	0.28313618815607494	0.9955917331907485	0.0	2048.4444444444443	2046.2222222222222	2566.6666666666665	70.0	70.0	70.0	70.0	1516738287000.4443
2016-03-31 12:29:29.450	0.0	-0.25	0.0	0.0	7.0	83.0	-74.9090909090909	2.5454545454545454	-91.81818181818181	98488.72727272728	531.0	0.0	0.0	0.0	0.0	-4.636363636363637	-37.18181818181818	-104398.54545454546	0.0	1.0718631527640603	0.0884364281188358	0.0	2050.909090909091	2050.5454545454545	2567.2727272727275	70.0	70.0	70.0	70.0	1516762902817.6365
2016-03-31 12:29:29.500	0.0	-0.25	0.0	0.0	7.0	83.0	-83.11111111111111	6.222222222222222	-89.11111111111111	98490.66666666667	531.0	0.0	0.0	0.0	0.0	3.3333333333333335	-35.55555555555556	-104395.44444444444	0.0	1.3205807209014893	-0.7923625906308492	0.0	2049.777777777778	2048.0	2567.1111111111113	70.0	70.0	70.0	70.0	1516787387301.3333
2016-03-31 12:29:29.550	0.0	-0.25	0.0	0.0	7.0	83.0	-80.5	6.7	-90.1	98489.6	531.0	0.0	0.0	0.0	0.0	-0.5	-37.1	-104401.4	0.0	0.8664144515991211	-0.6738064974546433	0.0	2049.2	2049.2	2567.6	70.0	70.0	70.0	70.0	1516810646041.6
2016-03-31 12:29:29.600	0.0	-0.25	0.0	0.0	7.0	83.0	-68.5	7.1	-100.5	98491.4	531.0	0.0	0.0	0.0	0.0	3.5	-36.9	-104404.1	0.0	1.262142789363861	-0.6981775462627411	0.0	2050.8	2047.6	2566.8	70.0	70.0	70.0	70.0	1516835296203.2
2016-03-31 12:29:29.650	0.0	-0.25	0.0	0.0	7.0	83.0	-73.8	8.0	-95.4	98493.2	531.0	0.0	0.0	0.0	0.0	6.7	-37.0	-104403.5	0.0	1.1643359541893006	-0.86136873960495	0.0	2048.4	2050.8	2567.6	70.4	70.4	70.4	70.4	1516859746337.5
2016-03-31 12:29:29.700	0.0	-0.25	0.0	0.0	7.0	83.0	-77.5	1.9	-90.1	98490.8	531.0	0.0	0.0	0.0	0.0	5.6	-37.5	-104400.2	0.0	0.6235757946968079	-0.9693353176116943	0.0	2048.8	2047.6	2567.2	72.0	72.0	72.0	72.0	1516884296493.0
2016-03-31 12:29:29.750	0.0	-0.25	0.0	0.0	7.0	83.0	-77.7	3.5	-91.7	98492.3	531.0	0.0	0.0	0.0	0.0	5.1	-40.5	-104400.6	0.0	0.5667434334754944	-0.6218435138463974	0.0	2050.0	2048.0	2566.8	72.0	72.0	72.0	72.0	1516908846660.9
2016-03-31 12:29:29.800	0.0	-0.25	0.0	0.0	7.0	83.0	-80.2	6.2	-91.6	98492.9	531.0	0.0	0.0	0.0	0.0	4.6	-44.6	-104398.1	0.0	0.9425358474254608	-0.2288762204349041	0.0	2049.2	2045.6	2568.0	72.0	72.0	72.0	72.0	1516933396807.4
2016-03-31 12:29:29.850	0.0	-0.25	0.0	0.0	7.0	83.0	-77.8	-1.0	-91.4	98496.8	531.0	0.0	0.0	0.0	0.0	4.5	-55.4	-104404.6	0.0	1.0318935811519623	0.2692664012312889	0.0	2053.6	2048.0	2567.2	72.0	72.0	72.0	72.0	1516957846923.3
2016-03-31 12:29:29.900	0.0	-0.25	0.0	0.0	7.0	83.0	-76.9	7.5	-91.7	98499.8	531.0	0.0	0.0	0.0	0.0	17.7	-54.2	-104422.7	0.0	1.2808928728103637	0.07704707751981914	0.0	2050.8	2047.6	2564.0	72.0	72.0	72.0	72.0	1516982497097.3
2016-03-31 12:29:29.950	0.0	-0.25	0.0	0.0	7.0	83.0	-77.5	7.3	-90.7	98503.4	531.0	0.0	0.0	0.0	0.0	33.3	-62.1	-104437.0	0.0	0.42103265672922136	0.046599181741476065	0.0	2049.2	2046.8	2566.4	72.0	72.0	72.0	72.0	1517006947237.8
2016-03-31 12:29:30.000	0.0	-0.25	0.0	0.0	7.0	83.0	-77.4	7.6	-92.4	98499.8	531.0	0.0	0.0	0.0	0.0	46.9	-68.0	-104432.6	0.0	0.7975042834877968	-0.41747884899377824	0.0	2050.0	2048.4	2567.6	72.0	72.0	72.0	72.0	1517298897426.9
2016-03-31 12:29:30.050	0.0	-0.25	0.0	0.0	7.0	83.0	-75.3	6.7	-90.5	98500.7	531.0	0.0	0.0	0.0	0.0	49.8	-77.3	-104412.8	0.0	0.9024587944149971	-0.3669035494327545	0.0	2052.0	2046.0	2566.4	72.0	72.0	72.0	72.0	1517590747576.4
2016-03-31 12:29:30.100	0.0	-0.25	0.0	0.0	7.0	83.0	-76.9	7.9	-88.1	98502.8	531.0	0.0	0.0	0.0	0.0	46.8	-79.1	-104431.3	0.0	0.7434078902006149	-0.7177710726857185	0.0	2050.8	2046.8	2567.2	72.0	72.0	72.0	72.0	1517615197649.6
2016-03-31 12:29:30.150	0.0	-0.25	0.0	0.0	7.0	83.0	-77.5	8.9	-90.5	98501.3	531.0	0.0	0.0	0.0	0.0	41.7	-78.4	-104425.7	0.0	0.4283426315523684	-0.2529443010687828	0.0	2052.0	2047.2	2568.0	72.0	72.0	72.0	72.0	1517639847838.9
2016-03-31 12:29:30.200	0.0	-0.25	0.0	0.0	7.0	83.0	-76.4	7.6	-93.0	98496.8	531.0	0.0	0.0	0.0	0.0	45.8	-75.5	-104418.8	0.0	0.4191544458270073	-0.32063471898436546	0.0	2051.6	2049.2	2566.0	72.0	72.0	72.0	72.0	1517664297954.7
2016-03-31 12:29:30.250	0.0	-0.25	0.0	0.0	7.0	83.0	-75.2	4.6	-92.0	98496.5	531.0	0.0	0.0	0.0	0.0	50.9	-72.1	-104421.2	0.0	0.22707906737923622	-0.6879270602017641	0.0	2050.4	2049.2	2566.0	72.0	72.0	72.0	72.0	1517688948147.1
2016-03-31 12:29:30.300	0.0	-0.25	0.0	0.0	7.0	83.0	-75.9	6.5	-91.7	98500.1	531.0	0.0	0.0	0.0	0.0	61.8	-77.0	-104419.7	0.0	0.04793109903112054	-0.5787178224767558	0.0	2048.0	2048.8	2565.2	72.0	72.0	72.0	72.0	1517713498290.5
2016-03-31 12:29:30.350	0.0	-0.25	0.0	0.0	7.0	83.0	-79.1	6.3	-91.5	98495.6	531.0	0.0	0.0	0.0	0.0	70.4	-82.0	-104409.7	0.0	-0.31202356722205876	-0.5393040582537652	0.0	2048.4	2046.8	2566.0	72.7	72.5	72.6	72.7	1517737948437.0
2016-03-31 12:29:30.400	0.0	-0.25	0.0	0.0	7.0	83.0	-78.7	7.1	-91.5	98495.6	531.0	0.0	0.0	0.0	0.0	67.9	-86.2	-104401.0	0.0	-0.47186111016198995	-0.5524917215108871	0.0	2048.4	2047.6	2568.4	75.8	76.5	75.6	77.2	1517762498580.4
2016-03-31 12:29:30.450	0.0	-0.25	0.0	0.0	7.0	83.0	-76.75	5.25	-91.75	98499.5	531.0	0.0	0.0	0.0	0.0	48.25	-83.75	-104416.25	0.0	-0.4715776666998863	-0.6872372701764107	0.0	2050.0	2045.0	2567.0	80.75	82.75	80.0	82.75	1517787198783.5
2016-03-31 12:29:30.500	0.0	-0.25	0.0	0.0	7.0	83.0	-77.7	5.7	-92.1	98498.0	531.0	0.0	0.0	0.0	0.0	23.3	-94.1	-104421.0	0.0	-0.43790141083300116	-0.33990146294236184	0.0	2050.4	2046.0	2567.6	84.0	84.4	83.4	85.1	1517811598858.2
2016-03-31 12:29:30.550	0.0	-0.25	0.0	0.0	7.0	83.0	-75.5	9.5	-92.7	98496.8	531.0	0.0	0.0	0.0	0.0	23.7	-106.0	-104424.2	0.0	0.004691293463110924	-0.28537295274436475	0.0	2050.4	2045.2	2568.0	88.0	88.3	87.6	89.1	1517836149023.0
2016-03-31 12:29:30.600	0.0	-0.25	0.0	0.0	7.0	83.0	-78.0	4.888888888888889	-89.33333333333333	98494.66666666667	531.0	0.0	0.0	0.0	0.0	29.11111111111111	-123.11111111111111	-104365.88888888889	0.0	0.021779592692231144	0.43781354526678723	0.0	2051.5555555555557	2045.7777777777778	2566.222222222222	93.33333333333333	90.55555555555556	92.66666666666667	91.11111111111111	1517859374436.6667
2016-03-31 12:29:30.650	0.0	-0.25	0.0	0.0	7.0	83.0	-78.0909090909091	6.454545454545454	-95.0	98499.09090909091	531.0	0.0	0.0	0.0	0.0	20.636363636363637	-122.18181818181819	-104319.36363636363	0.0	1.07714305953546	-1.2007638243111698	0.0	2051.6363636363635	2050.5454545454545	2567.6363636363635	97.63636363636364	94.63636363636364	97.63636363636364	94.9090909090909	1517884010483.6365
2016-03-31 12:29:30.700	0.0	-0.25	0.0	0.0	7.0	83.0	-76.7	6.3	-95.1	98496.2	531.0	0.0	0.0	0.0	0.0	20.6	-131.3	-104274.7	0.0	0.5164963938295841	-0.7216904789209366	0.0	2054.0	2046.0	2570.8	103.1	97.4	102.3	98.2	1517909799471.6
2016-03-31 12:29:30.750	0.0	-0.25	0.0	0.0	7.0	83.0	-76.2	6.4	-97.2	98503.1	531.0	0.0	0.0	0.0	0.0	22.9	-140.6	-104160.4	0.0	0.5798668280243874	-0.60614223331213	0.0	2050.8	2048.4	2567.2	108.4	100.2	107.9	100.8	1517934249578.5
2016-03-31 12:29:30.800	0.0	-0.25	0.0	0.0	7.0	83.0	-75.55555555555556	2.4444444444444446	-96.44444444444444	98495.66666666667	531.0	0.0	0.0	0.0	0.0	31.555555555555557	-145.0	-103998.77777777778	0.0	0.6245696577760909	-0.998066246509552	0.0	2049.777777777778	2044.888888888889	2569.3333333333335	115.77777777777777	100.22222222222223	114.22222222222223	101.33333333333333	1517957574994.7778
2016-03-31 12:29:30.850	0.0	-0.25	0.0	0.0	7.0	83.0	-76.18181818181819	3.6363636363636362	-92.54545454545455	98505.09090909091	531.0	0.0	0.0	0.0	0.0	40.09090909090909	-156.36363636363637	-103838.63636363637	0.0	-0.1182587244971232	-0.8075964518568732	0.0	2048.3636363636365	2049.818181818182	2572.7272727272725	119.18181818181819	104.72727272727273	119.54545454545455	105.72727272727273	1517982029265.818
2016-03-31 12:29:30.900	0.0	-0.25	0.0	0.0	7.0	83.0	-78.44444444444444	5.333333333333333	-92.66666666666667	98503.66666666667	531.0	0.0	0.0	0.0	0.0	39.55555555555556	-178.33333333333334	-103841.44444444444	0.0	-0.16848929911955363	-2.731704764895969	0.0	2052.0	2048.8888888888887	2570.222222222222	117.11111111111111	114.44444444444444	116.22222222222223	115.66666666666667	1518006675302.5557
2016-03-31 12:29:30.950	0.0	-0.25	0.0	0.0	7.0	83.0	-78.36363636363636	4.363636363636363	-90.0	98507.27272727272	531.0	0.0	0.0	0.0	0.0	28.727272727272727	-176.54545454545453	-103885.36363636363	0.0	0.5117381188849156	-0.8676467429507863	0.0	2052.3636363636365	2045.090909090909	2564.7272727272725	121.18181818181819	118.9090909090909	120.81818181818181	120.0	1518031129527.182
2016-03-31 12:29:31.000	0.0	-0.25	0.0	0.0	7.0	83.0	-76.4	6.0	-90.6	98504.3	531.0	0.0	0.0	0.0	0.0	52.0	-155.4	-103895.1	0.0	0.009382906556129455	-0.8803875848650933	0.0	2046.4	2044.4	2570.4	121.9	125.8	123.1	126.5	1518324300319.9
2016-03-31 12:29:31.050	0.0	-0.25	0.0	0.0	7.0	83.0	-78.22222222222223	7.333333333333333	-93.11111111111111	98511.66666666667	531.0	0.0	0.0	0.0	0.0	10.444444444444445	-174.44444444444446	-104073.33333333333	0.0	-2.845844440990024	-0.045083169307973625	0.0	2044.888888888889	2048.4444444444443	2571.1111111111113	126.88888888888889	129.77777777777777	124.88888888888889	130.55555555555554	1518615048047.5557
2016-03-31 12:29:31.100	0.0	-0.25	0.0	0.0	7.0	83.0	-76.2	4.2	-94.6	98504.9	531.0	0.0	0.0	0.0	0.0	31.9	-196.9	-104166.0	0.0	-2.3927383005619047	-1.404362106323242	0.0	2042.0	2047.2	2568.0	129.5	134.4	127.1	136.2	1518638295641.7
2016-03-31 12:29:31.150	0.0	-0.25	0.0	0.0	7.0	83.0	-76.2	5.4	-91.0	98497.4	531.0	0.0	0.0	0.0	0.0	47.2	-165.8	-104253.9	0.0	-2.547952890396118	-1.1185910627245903	0.0	2038.4	2042.4	2563.6	132.0	139.2	132.7	139.8	1518662845757.5
2016-03-31 12:29:31.200	0.0	-0.25	0.0	0.0	7.0	83.0	-76.8	4.4	-92.8	98507.0	531.0	0.0	0.0	0.0	0.0	-81.5	-253.6	-104403.6	0.0	-3.861483120918274	-1.0753917068243026	0.0	2044.0	2051.2	2576.8	135.3	145.5	134.2	144.6	1518687295888.8
2016-03-31 12:29:31.250	0.0	-0.25	0.0	0.0	7.0	83.0	-77.0	5.8	-91.4	98501.6	531.0	0.0	0.0	0.0	0.0	-42.8	-277.1	-104395.8	0.0	-2.4182896494865416	-1.6872560948133468	0.0	2051.2	2044.8	2571.6	147.5	141.1	142.7	144.1	1518711946053.6
2016-03-31 12:29:31.300	0.0	-0.25	0.0	0.0	7.0	83.0	-77.0	5.0	-87.0	98502.5	531.0	0.0	0.0	0.0	0.0	-269.3	-232.0	-104313.3	0.0	0.5227482449263334	-2.5885723873972895	0.0	2040.4	2045.6	2570.8	151.3	147.3	148.5	144.6	1518736396285.4
2016-03-31 12:29:31.350	0.0	-0.25	0.0	0.0	7.0	83.0	-76.6	3.8	-92.6	98502.8	531.0	0.0	0.0	0.0	0.0	-352.8	-183.6	-104184.4	0.0	1.370056676864624	-2.1847257390618324	0.0	2044.8	2052.0	2588.8	158.6	146.6	158.4	144.0	1518760946337.3
2016-03-31 12:29:31.400	0.0	-0.25	0.0	0.0	7.0	83.0	-75.4	1.4	-90.6	98503.4	531.0	0.0	0.0	0.0	0.0	-389.6	-82.8	-104021.2	0.0	1.1406018733978271	-1.4140451192855834	0.0	2046.8	2050.0	2584.4	164.7	150.2	159.7	149.1	1518785496511.4
2016-03-31 12:29:31.450	0.0	-0.25	0.0	0.0	7.0	83.0	-75.6	3.6	-93.6	98497.7	531.0	0.0	0.0	0.0	0.0	-629.4	-232.6	-103835.4	0.0	1.1744285464286803	-3.7512760162353516	0.0	2038.0	2055.2	2590.4	170.2	154.2	164.7	150.9	1518810146602.7
2016-03-31 12:29:31.500	0.0	-0.25	0.0	0.0	7.0	83.0	-78.6	-1.0	-90.2	98502.5	531.0	0.0	0.0	0.0	0.0	-727.2	-137.9	-103696.3	0.0	1.3822326481342315	-4.666250514984131	0.0	2039.6	2058.4	2607.2	174.6	156.7	170.6	153.7	1518834496810.5
2016-03-31 12:29:31.550	0.0	-0.25	0.0	0.0	7.0	83.0	-79.2	0.8	-90.0	98503.7	531.0	0.0	0.0	0.0	0.0	-826.8	-140.1	-103570.6	0.0	4.043971109390259	-7.5883642673492435	0.0	2044.4	2067.2	2600.4	177.1	164.4	170.5	159.5	1518859146975.2
2016-03-31 12:29:31.600	0.0	-0.25	0.0	0.0	7.0	83.0	-78.8	-1.2	-93.2	98499.2	531.0	0.0	0.0	0.0	0.0	-1063.0	-178.2	-103262.1	0.0	9.856451606750488	-8.307806301116944	0.0	2063.2	2066.4	2617.6	195.0	155.5	185.2	151.8	1518883597091.2
2016-03-31 12:29:31.650	0.0	-0.25	0.0	0.0	7.0	83.0	-77.4	0.6	-90.6	98498.6	531.0	0.0	0.0	0.0	0.0	-1116.8	-508.3	-102877.3	0.0	13.31890926361084	-9.67786464691162	0.0	2058.8	2055.2	2617.6	203.0	154.3	191.3	155.0	1518908147219.2
2016-03-31 12:29:31.700	0.0	-0.25	0.0	0.0	7.0	83.0	-76.2	-1.4	-92.2	98491.4	531.0	0.0	0.0	0.0	0.0	-1066.9	-915.8	-102472.1	0.0	12.369060897827149	-7.704911851882935	0.0	2058.8	2051.6	2618.0	204.1	158.3	192.5	163.4	1518932697375.1
2016-03-31 12:29:31.750	0.0	-0.25	0.0	0.0	7.0	83.0	-74.8	-0.4	-91.6	98493.3	531.0	0.0	0.0	0.0	0.0	-752.3	-1393.1	-102244.8	0.0	12.387673282623291	-11.126816558837891	0.0	2060.4	2052.8	2612.8	204.2	156.2	194.4	167.5	1518957247545.8
2016-03-31 12:29:31.800	0.0	-0.25	0.0	0.0	7.0	83.0	-75.4	-1.8	-94.6	98491.6	531.0	0.0	0.0	0.0	0.0	-234.6	-1722.0	-102193.8	0.0	7.575322914123535	-11.6467116355896	0.0	2050.8	2046.4	2615.2	195.5	165.7	188.7	176.5	1518981797741.3
2016-03-31 12:29:31.850	0.0	-0.25	0.0	0.0	7.0	83.0	-75.2	1.2	-90.4	98492.3	531.0	0.0	0.0	0.0	0.0	-197.7	-1611.7	-102267.6	0.0	4.317586088180542	-12.642055416107178	0.0	2053.6	2054.0	2601.6	192.9	174.3	185.7	177.6	1519006247823.5
2016-03-31 12:29:31.900	0.0	-0.25	0.0	0.0	7.0	83.0	-74.6	0.2	-92.6	98489.9	531.0	0.0	0.0	0.0	0.0	-286.7	-1356.1	-102344.4	0.0	4.884393787384033	-10.888780879974366	0.0	2052.8	2046.0	2596.0	193.9	175.0	188.2	177.3	1519030897988.4
2016-03-31 12:29:31.950	0.0	-0.25	0.0	0.0	7.0	83.0	-76.6	0.2	-95.0	98487.4	531.0	0.0	0.0	0.0	0.0	-212.7	-1278.5	-102383.6	0.0	3.5023889780044555	-9.331224727630616	0.0	2050.4	2043.2	2586.4	194.6	174.3	190.9	178.6	1519055548253.7
2016-03-31 12:29:32.000	0.0	-0.25	0.0	0.0	7.0	83.0	-77.8	0.6	-91.0	98488.4	531.0	0.0	0.0	0.0	0.0	-39.5	-1038.1	-102531.6	0.0	2.369368040561676	-7.357142353057862	0.0	2051.6	2041.6	2589.2	188.0	181.5	186.0	186.8	1519347298272.3
2016-03-31 12:29:32.050	0.0	-0.25	0.0	0.0	7.0	83.0	-76.6	1.4	-91.4	98485.2	531.0	0.0	0.0	0.0	0.0	87.4	-1058.3	-102804.5	0.0	0.7457702934741974	-6.8445275783538815	0.0	2046.8	2047.2	2586.8	187.0	185.2	183.1	190.9	1519639148427.9
2016-03-31 12:29:32.100	0.0	-0.25	0.0	0.0	7.0	83.0	-72.4	-2.0	-92.0	98479.2	531.0	0.0	0.0	0.0	0.0	207.7	-1082.7	-103032.3	0.0	0.5067616462707519	-7.175277233123779	0.0	2056.0	2048.4	2587.2	189.2	182.9	187.2	190.9	1519663798601.8
2016-03-31 12:29:32.150	0.0	-0.25	0.0	0.0	7.0	83.0	-74.8	2.8	-93.2	98488.0	531.0	0.0	0.0	0.0	0.0	347.2	-1211.5	-103155.5	0.0	-1.456883606314659	-7.052377557754516	0.0	2054.0	2041.6	2586.8	191.7	183.9	186.3	192.4	1519688248748.2
2016-03-31 12:29:32.200	0.0	-0.25	0.0	0.0	7.0	83.0	-73.2	0.4	-92.0	98481.0	531.0	1.1057218762289267e-05	-5.949882888793946	0.0	0.0	191.4	-1299.6	-101944.6	0.0	-1.090361338853836	-8.495666217803954	0.0	2053.6	2041.2	2586.4	192.0	188.5	184.0	193.9	1519712798888.6
2016-03-31 12:29:32.250	0.0	-0.25	0.0	0.0	7.0	83.0	-72.8	1.2	-94.8	98477.9	531.0	0.0001434517362213228	-58.01479015350342	0.0	0.0	-1.7	-1384.4	-98913.1	156.6	10.458323111385107	-14.501204681396484	0.0	2050.8	2044.0	2582.8	198.5	194.3	189.4	198.8	1519737349102.2
2016-03-31 12:29:32.300	0.0	-0.25	0.0	0.0	7.0	83.0	-75.6	-2.4	-91.6	98486.4	531.0	0.00048159469151869415	-74.15127487182617	0.0	0.0	-52.9	-1211.2	-99015.7	274.1	68.07293586730957	-45.953623580932614	0.0	2060.8	2046.4	2679.2	230.8	225.1	220.1	226.5	1519761999267.0
2016-03-31 12:29:32.350	0.0	-0.25	0.0	0.0	7.0	83.0	-77.2	0.4	-91.6	98482.2	531.0	0.0010212358494754881	-63.331582641601564	0.0	0.0	83.9	-972.2	-99026.2	295.2	110.12185668945312	-52.470537185668945	0.0	2060.4	2042.8	2742.4	231.4	220.5	223.1	221.0	1519786549459.4
2016-03-31 12:29:32.400	0.0	-0.25	0.0	0.0	7.0	83.0	-75.0	-0.6	-90.2	98483.4	531.0	0.001561369386035949	-56.66175765991211	0.0	0.0	550.8	-651.4	-99086.4	321.6	119.84249343872071	-36.131916999816895	0.0	2059.6	2038.0	2709.6	223.4	216.5	220.3	219.5	1519811099541.6
2016-03-31 12:29:32.450	0.0	-0.25	0.0	0.0	7.0	83.0	-76.4	4.4	-92.0	98481.8	531.0	0.0021132145309820773	-49.62720794677735	0.0	0.0	1187.2	-486.5	-99085.6	360.5	104.67137451171875	-9.589658331871032	0.0	2054.0	2035.6	2658.8	211.1	202.6	212.7	208.8	1519835449636.2
2016-03-31 12:29:32.500	0.0	-0.25	0.0	0.0	7.0	83.0	-77.8	3.0	-90.2	98482.4	531.0	0.002555483533069491	-48.982933044433594	0.0	0.0	1713.0	-481.2	-99045.4	412.6	66.31810607910157	-5.542880249023438	0.0	2075.2	2044.0	2604.0	202.2	189.6	205.0	197.6	1519863707323.6
2016-03-31 12:29:32.550	0.0	-0.25	0.0	0.0	7.0	83.0	-75.0	5.0	-94.6	98483.4	531.0	0.0028642133343964814	-48.07114105224609	0.0	0.0	1870.2	-529.5	-99009.7	458.8	49.236410522460936	-11.713529253005982	0.0	2049.6	2038.8	2570.4	194.4	180.6	194.9	189.8	1519884549984.1
2016-03-31 12:29:32.600	0.0	-0.25	0.0	0.0	7.0	83.0	-76.88888888888889	5.777777777777778	-93.77777777777777	98483.77777777778	531.0	0.0032196617943959106	-48.768833584255646	0.0	0.0	1876.4444444444443	-578.5555555555555	-98961.33333333333	508.77777777777777	28.634390936957466	-23.409632152981228	0.0	2056.4444444444443	2045.7777777777778	2545.3333333333335	191.22222222222223	176.0	191.11111111111111	184.55555555555554	1519908042158.0
2016-03-31 12:29:32.650	0.0	-0.25	0.0	0.0	7.0	83.0	-74.0	5.2727272727272725	-92.18181818181819	98485.09090909091	531.0	0.0026465517638081856	-90.43417705189098	0.0	0.0	1827.8181818181818	-546.1818181818181	-98907.18181818182	562.0909090909091	12.399737618186258	-51.02648006786	0.0	2048.3636363636365	2035.2727272727273	2530.181818181818	188.63636363636363	171.63636363636363	188.63636363636363	182.36363636363637	1519932465891.9092
2016-03-31 12:29:32.700	0.0	-0.25	0.0	0.0	7.0	83.0	-74.2	5.4	-93.4	98476.9	531.0	0.0033199039055034517	-133.5333221435547	0.0	0.0	1729.7	-360.3	-98871.4	615.8	0.7949224472045898	-90.48144340515137	0.0	2052.4	2042.8	2524.8	188.5	172.9	188.1	182.4	1519958200436.0
2016-03-31 12:29:32.750	0.0	-0.25	0.0	0.0	7.0	83.0	-74.88888888888889	3.3333333333333335	-91.77777777777777	98482.77777777778	531.0	0.003533200541925099	-130.63206651475696	0.0	0.0	1584.888888888889	-39.22222222222222	-98827.77777777778	661.3333333333334	23.513100094265408	-264.56031629774304	0.0	2051.1111111111113	2039.111111111111	2528.4444444444443	182.0	159.11111111111111	171.88888888888889	174.66666666666666	1519981525912.3333
2016-03-31 12:29:32.800	0.0	-0.25	0.0	0.0	7.0	83.0	-76.5	6.9	-90.9	98478.2	531.0	0.004153459006920457	-138.62291259765624	0.0	0.0	1498.4	808.7	-98841.3	702.9	32.91201305389404	-340.74949035644534	0.0	2051.6	2046.4	2454.0	140.2	124.3	135.7	134.2	1520004895717.9
2016-03-31 12:29:32.850	0.0	-0.25	0.0	0.0	7.0	83.0	-79.2	6.0	-90.8	98480.5	531.0	0.0040910600684583185	-139.42763671875	0.0	0.0	1495.6	2153.8	-98804.5	737.9	25.335302352905273	-316.3763763427734	0.0	2050.0	2043.6	2363.2	130.0	120.3	134.5	123.0	1520029245800.3
2016-03-31 12:29:32.900	0.0	-0.25	0.0	0.0	7.0	83.0	-80.0	7.8	-89.0	98477.1	531.0	0.004027159931138158	-141.17459411621093	0.0	0.0	1538.0	3413.5	-98816.5	764.9	11.83904047012329	-270.9921142578125	0.0	2044.4	2036.8	2373.2	130.9	128.3	140.6	127.4	1520053895989.4
2016-03-31 12:29:32.950	0.0	-0.25	0.0	0.0	7.0	83.0	-81.4	5.8	-87.4	98477.4	531.0	0.0038631773088127373	-141.7656036376953	0.0	0.0	1476.0	4207.1	-98879.2	784.6	0.9737418174743653	-228.32302856445312	0.0	2044.8	2032.8	2397.6	135.9	138.3	145.1	135.9	1520078446139.2
2016-03-31 12:29:33.000	0.0	-0.25	0.0	0.0	7.0	83.0	-85.3	4.9	-87.5	98481.1	531.0	0.0035758967511355876	-139.32257537841798	0.0	0.0	1312.5	4462.7	-98955.8	798.0	-6.723794317245483	-178.10171203613282	0.0	2048.0	2032.8	2429.2	143.8	144.9	150.6	143.2	1520316896352.6
2016-03-31 12:29:33.050	0.0	-0.25	0.0	0.0	7.0	83.0	-85.4	3.2	-88.0	98471.5	531.0	0.0029565674252808095	-127.32472915649414	0.0	0.0	1123.6	4239.1	-99029.8	807.4	-18.072181510925294	-102.73782424926758	0.0	2049.2	2034.4	2454.0	149.3	150.2	154.6	148.8	1520662246422.8
2016-03-31 12:29:33.100	0.0	-0.25	0.0	0.0	7.0	83.0	-84.0	4.4	-86.2	98483.6	531.0	0.0027067234041169286	-114.62563858032226	0.0	0.0	908.9	3608.6	-99109.9	809.9	-25.343792343139647	-42.675911331176756	0.0	2054.8	2041.2	2478.0	157.8	155.4	159.5	156.9	1520686796575.4
2016-03-31 12:29:33.150	0.0	-0.25	0.0	0.0	7.0	83.0	-81.8	4.2	-89.0	98476.1	531.0	0.0025194991612806916	-104.1267105102539	0.0	0.0	634.3	2759.9	-99169.8	807.4	-39.90456275939941	0.19819693565368635	0.0	2052.8	2044.4	2503.6	166.1	161.1	163.9	163.9	1520711346740.1
2016-03-31 12:29:33.200	0.0	-0.25	0.0	0.0	7.0	83.0	-77.9	4.9	-91.1	98482.8	531.0	0.002515174145810306	-96.51219940185547	0.0	0.0	365.6	1829.1	-99201.6	801.1	-46.06452178955078	22.910622787475585	0.0	2055.2	2045.6	2528.8	174.1	164.9	169.3	170.5	1520735796966.1
2016-03-31 12:29:33.250	0.0	-0.25	0.0	0.0	7.0	83.0	-78.7	1.3	-90.9	98478.8	531.0	0.0026902837678790094	-84.2240966796875	0.0	0.0	170.5	1001.0	-99220.7	792.0	-52.034899139404295	44.02990570068359	0.0	2054.4	2047.2	2551.6	179.9	169.2	174.5	176.0	1520760447094.3
2016-03-31 12:29:33.300	0.0	-0.25	0.0	0.0	7.0	83.0	-75.4	1.8	-91.0	98480.5	531.0	0.00281069518532604	-77.3969352722168	0.0	0.0	46.2	385.7	-99193.1	782.1	-56.18501777648926	55.09643135070801	0.0	2054.0	2047.6	2568.4	185.0	171.3	180.5	178.1	1520784897182.7
2016-03-31 12:29:33.350	0.0	-0.25	0.0	0.0	7.0	83.0	-76.6	4.4	-91.2	98477.9	531.0	0.002992428466677666	-68.64672088623047	0.0	0.0	-108.2	-115.3	-99177.0	771.0	-61.906830596923825	63.76138610839844	0.0	2050.4	2049.6	2580.4	188.3	176.1	181.5	183.3	1520809447365.8
2016-03-31 12:29:33.400	0.0	-0.25	0.0	0.0	7.0	83.0	-76.6	0.4	-89.8	98482.3	531.0	0.0031772472895681856	-68.42034454345703	0.0	0.0	-297.5	-424.4	-99173.8	759.9	-54.73104057312012	55.43743629455567	0.0	2051.2	2050.0	2591.6	191.6	178.9	184.8	184.4	1520833997500.1
2016-03-31 12:29:33.450	0.0	-0.25	0.0	0.0	7.0	83.0	-76.8	1.4	-92.6	98477.7	531.0	0.0033148782793432476	-61.51867942810058	0.0	0.0	-354.4	-549.3	-99112.7	750.3	-59.38573875427246	55.883257675170896	0.0	2054.8	2044.0	2601.6	193.6	177.8	188.7	184.3	1520858547646.6
2016-03-31 12:29:33.500	0.0	-0.25	0.0	0.0	7.0	83.0	-76.4	0.6	-92.0	98481.5	531.0	0.0032799594569951295	-61.07799110412598	0.0	0.0	-378.7	-658.2	-99112.0	741.3	-65.58540534973145	47.88627166748047	0.0	2054.0	2046.4	2606.4	189.9	182.0	185.9	189.4	1520882997741.1
2016-03-31 12:29:33.550	0.0	-0.25	0.0	0.0	7.0	83.0	-77.8	0.2	-92.4	98481.0	531.0	0.0032416130183264614	-60.04016304016113	0.0	0.0	-412.0	-621.6	-99239.5	734.1	-68.39174118041993	32.83419628143311	0.0	2052.0	2053.6	2607.6	188.1	184.8	183.9	190.5	1520907647976.2
2016-03-31 12:29:33.600	0.0	-0.25	0.0	0.0	7.0	83.0	-78.0	2.8	-89.8	98477.5	531.0	0.0037825630279257894	-59.404549026489256	0.0	0.0	-533.4	-451.3	-99297.3	726.8	-50.962622833251956	29.68854331970215	0.0	2052.0	2052.0	2604.8	189.0	186.0	185.6	189.3	1520932198137.8
2016-03-31 12:29:33.650	0.0	-0.25	0.0	0.0	7.0	83.0	-76.66666666666667	-1.5555555555555556	-91.11111111111111	98478.88888888889	530.7777777777778	0.004168802768819862	-52.4377326965332	0.0	0.0	-450.6666666666667	-297.22222222222223	-99221.0	721.5555555555555	-42.113697899712456	29.465126037597656	0.0	2054.222222222222	2041.3333333333333	2606.222222222222	193.33333333333334	178.88888888888889	192.55555555555554	183.77777777777777	1520955423539.3333
2016-03-31 12:29:33.700	0.0	-0.25	0.0	0.0	7.0	83.0	-76.27272727272727	-0.45454545454545453	-91.0	98482.54545454546	531.0	0.0043887104415758086	-47.91128193248402	0.0	0.0	-308.45454545454544	-211.0909090909091	-99259.27272727272	717.1818181818181	-46.09689053622159	31.785330338911578	0.0	2055.2727272727275	2041.8181818181818	2601.818181818182	187.63636363636363	183.1818181818182	186.27272727272728	189.0909090909091	1520979877710.182
2016-03-31 12:29:33.750	0.0	-0.25	0.0	0.0	7.0	83.0	-75.9	0.7	-91.5	98481.1	531.0	0.0045199757907539604	-53.76725730895996	0.0	0.0	-194.0	-213.5	-99321.2	716.2	-32.606694030761716	14.78984227180481	0.0	2054.8	2044.4	2593.2	185.3	180.5	183.2	187.5	1521005748571.2
2016-03-31 12:29:33.800	0.0	-0.25	0.0	0.0	7.0	83.0	-76.9	6.1	-91.3	98480.3	531.0	0.004948345571756363	-50.14472618103027	0.0	0.0	-72.2	-102.7	-99305.4	718.2	-28.13284568786621	6.65204930305481	0.0	2051.6	2050.8	2578.8	184.6	175.5	184.1	180.9	1521030398714.8
2016-03-31 12:29:33.850	0.0	-0.25	0.0	0.0	7.0	83.0	-78.1	2.9	-90.9	98483.2	531.0	0.00537899169139564	-47.87374763488769	0.0	0.0	-1.4	-21.2	-99317.4	720.1	-26.267126274108886	14.078319931030274	0.0	2050.0	2051.6	2570.4	180.0	176.7	179.6	182.2	1521054848888.7
2016-03-31 12:29:33.900	0.0	-0.25	0.0	0.0	7.0	83.0	-75.8	2.2	-93.0	98485.3	531.0	0.005366226518526673	-49.330651092529294	0.0	0.0	85.7	-65.1	-99402.7	721.8	-21.045418167114256	11.484423732757568	0.0	2048.4	2042.4	2564.4	174.3	173.6	183.1	185.4	1521079298958.8
2016-03-31 12:29:33.950	0.0	-0.25	0.0	0.0	7.0	83.0	-76.22222222222223	1.1111111111111112	-93.33333333333333	98481.22222222222	530.7777777777778	0.0058615304426186616	-44.863062116834854	0.0	0.0	-131.66666666666666	-309.55555555555554	-99405.88888888889	723.8888888888889	-18.85785918765598	21.617858568827312	0.0	2051.5555555555557	2046.2222222222222	2566.222222222222	176.11111111111111	167.33333333333334	184.22222222222223	185.0	1521102613335.111
2016-03-31 12:29:34.000	0.0	-0.25	0.0	0.0	7.0	83.0	-75.5	-1.3	-91.9	98485.1	531.0	0.0061251245439052585	-43.80904541015625	0.0	0.0	-925.8	-611.1	-99432.0	724.4	-13.644173526763916	25.04088249206543	0.0	2054.8	2044.0	2566.0	175.7	171.6	180.4	188.0	1521339994756.6
2016-03-31 12:29:34.050	0.0	-0.25	0.0	0.0	7.0	83.0	-72.8	-1.0	-92.4	98482.2	531.0	0.006438348442316055	-44.8086296081543	0.0	0.0	-2354.7	-906.6	-99431.6	725.4	-1.2182011246681212	20.428408050537108	0.0	2056.0	2051.6	2567.2	181.1	171.3	180.8	182.8	1521687649407.4
2016-03-31 12:29:34.100	0.0	-0.25	0.0	0.0	7.0	83.0	-74.0	-8.2	-93.2	98487.1	530.8	0.006540073128417134	-45.867454910278326	0.0	0.0	-3781.4	-958.0	-99404.7	726.7	18.81046857833862	9.926445388793946	0.0	2057.6	2049.2	2568.0	180.3	173.6	180.0	181.8	1521712299550.8
2016-03-31 12:29:34.150	0.0	-0.25	0.0	0.0	7.0	83.0	-74.77777777777777	-7.666666666666667	-92.77777777777777	98484.11111111111	531.0	0.0067483252431783415	-41.7765023973253	0.0	0.0	-4948.333333333333	-969.7777777777778	-99385.55555555556	727.4444444444445	34.80148675706651	7.566184043884277	0.0	2046.6666666666667	2044.888888888889	2570.222222222222	181.44444444444446	174.11111111111111	180.22222222222223	182.11111111111111	1521735591671.0
2016-03-31 12:29:34.200	0.0	-0.25	0.0	0.0	7.0	83.0	-74.0	-12.8	-94.0	98485.2	530.6	0.0070010429248213765	-39.831320190429686	0.0	0.0	-5912.2	-977.6	-99396.0	728.3	65.51057586669921	6.634543418884277	0.0	2057.6	2048.8	2569.2	181.1	175.8	179.1	182.6	1521758894893.9
2016-03-31 12:29:34.250	0.0	-0.25	0.0	0.0	7.0	83.0	-75.18181818181819	-15.363636363636363	-93.18181818181819	98480.45454545454	530.6363636363636	0.00728213753212582	-39.279522982510656	0.0	0.0	-6696.363636363636	-952.0	-99420.72727272728	728.7272727272727	105.02529560435902	1.1486663899638436	0.0	2049.4545454545455	2043.2727272727273	2569.090909090909	180.72727272727272	175.45454545454547	180.8181818181818	183.63636363636363	1521784611141.7273
2016-03-31 12:29:34.300	0.0	-0.25	0.0	0.0	7.0	83.0	-74.77777777777777	-17.22222222222222	-94.11111111111111	98487.0	531.0	0.00763040863805347	-37.111944410536026	0.0	0.0	-7145.444444444444	-938.0	-99418.88888888889	729.8888888888889	144.10156419542102	-0.0703013473086887	0.0	2054.6666666666665	2049.777777777778	2568.4444444444443	179.88888888888889	174.11111111111111	181.55555555555554	183.55555555555554	1521809186577.111
2016-03-31 12:29:34.350	0.0	-0.25	0.0	0.0	7.0	83.0	-74.0	-17.2	-92.0	98487.7	530.7	0.008082595653831959	-38.96727981567383	0.0	0.0	-7408.4	-920.2	-99475.8	730.4	196.93767852783202	-1.9451791971921921	0.0	2045.2	2044.8	2571.6	178.0	176.7	179.2	187.2	1521832345260.2
2016-03-31 12:29:34.400	0.0	-0.25	0.0	0.0	7.0	83.0	-75.4	-15.8	-92.6	98482.3	530.4	0.008243868220597505	-40.51687164306641	0.0	0.0	-7508.6	-894.7	-99521.0	731.2	262.68752136230466	-9.858259439468384	0.0	2043.2	2046.8	2571.2	177.3	174.0	182.7	186.0	1521856995470.7
2016-03-31 12:29:34.450	0.0	-0.25	0.0	0.0	7.0	83.0	-74.8	-20.0	-93.6	98485.9	530.5	0.00858183354139328	-37.92331962585449	0.0	0.0	-7468.6	-859.7	-99521.8	733.1	307.6015625	-7.74836916923523	0.0	2043.2	2045.6	2568.4	176.9	171.4	183.2	185.1	1521881445574.6
2016-03-31 12:29:34.500	0.0	-0.25	0.0	0.0	7.0	83.0	-76.4	-19.6	-91.2	98482.6	531.0	0.009035228937864303	-39.81036186218262	0.0	0.0	-7337.4	-860.2	-99535.4	734.9	362.6906311035156	-10.907939147949218	0.0	2042.4	2047.2	2567.2	175.0	170.9	182.2	186.8	1521906095809.5
2016-03-31 12:29:34.550	0.0	-0.25	0.0	0.0	7.0	83.0	-71.8	-17.0	-90.2	98469.0	530.8	0.009526172839105129	-42.116476440429686	0.0	0.0	-7178.6	-920.0	-99565.4	734.4	422.6216247558594	-14.395784759521485	0.0	2048.8	2046.4	2568.0	176.0	171.4	183.0	188.8	1521931948388.2
2016-03-31 12:29:34.600	0.0	-0.25	0.0	0.0	7.0	83.0	-72.8	-17.6	-92.4	98486.7	530.1	0.00978862652555108	-44.24531288146973	0.0	0.0	-7046.5	-1022.7	-99583.9	731.0	475.79877319335935	-20.233407402038573	0.0	2035.2	2043.2	2576.8	178.0	172.7	185.8	192.1	1521955196059.5
2016-03-31 12:29:34.650	0.0	-0.25	0.0	0.0	7.0	83.0	-72.6	-19.8	-95.0	98473.9	530.1	0.010227894503623247	-46.464713668823244	0.0	0.0	-6872.2	-1101.3	-99598.6	732.2	532.10322265625	-29.797125625610352	0.0	2034.8	2044.4	2582.8	176.7	170.1	185.6	190.0	1521979646230.6
2016-03-31 12:29:34.700	0.0	-0.25	0.0	0.0	7.0	83.0	-75.4	-17.0	-92.6	98486.4	530.3	0.01072688652202487	-47.16997756958008	0.0	0.0	-6726.8	-1237.9	-99596.7	734.9	587.017724609375	-30.55076656341553	0.0	2037.2	2048.4	2571.2	175.4	167.9	182.7	189.6	1522004096343.5
2016-03-31 12:29:34.750	0.0	-0.25	0.0	0.0	7.0	83.0	-71.4	-17.8	-94.2	98483.0	530.0	0.011118762753903865	-51.25873565673828	0.0	0.0	-6685.9	-1365.0	-99643.2	734.4	641.1649719238281	-41.938455963134764	0.0	2030.4	2047.2	2568.0	174.9	171.2	182.2	192.2	1522028746511.3
2016-03-31 12:29:34.800	0.0	-0.25	0.0	0.0	7.0	83.0	-74.6	-21.0	-92.6	98485.7	530.4	0.011621130350977182	-52.70200881958008	0.0	0.0	-6629.8	-1482.3	-99600.0	735.0	693.6906860351562	-49.3461410522461	0.0	2030.4	2046.0	2572.4	179.0	165.5	185.8	188.9	1522053296642.5
2016-03-31 12:29:34.850	0.0	-0.25	0.0	0.0	7.0	83.0	-71.55555555555556	-22.88888888888889	-90.88888888888889	98480.11111111111	530.4444444444445	0.011859714881413512	-57.474381340874565	0.0	0.0	-6534.111111111111	-1620.7777777777778	-99627.77777777778	735.6666666666666	750.2193467881945	-64.28850809733073	0.0	2032.0	2049.777777777778	2567.5555555555557	174.33333333333334	168.88888888888889	182.33333333333334	192.11111111111111	1522078514922.4443
2016-03-31 12:29:34.900	0.0	-0.25	0.0	0.0	7.0	83.0	-74.6	-20.6	-92.2	98485.4	530.2	0.012091728672385216	-58.17151222229004	0.0	0.0	-6423.5	-1581.8	-99612.2	735.2	789.2187805175781	-72.2958755493164	0.0	2028.8	2047.2	2569.6	177.5	167.2	186.8	190.3	1522102296966.0
2016-03-31 12:29:34.950	0.0	-0.25	0.0	0.0	7.0	83.0	-71.4	-21.0	-91.4	98488.7	530.0	0.012532362155616284	-58.97485237121582	0.0	0.0	-6281.8	-1638.8	-99607.0	733.1	821.0808959960938	-72.30171051025391	0.0	2023.2	2047.2	2576.4	176.4	168.8	186.3	194.4	1522126847109.5
2016-03-31 12:29:35.000	0.0	-0.25	0.0	0.0	7.0	83.0	-72.2	-19.4	-88.6	98485.5	530.2	0.01270899996161461	-61.55568008422851	0.0	0.0	-6143.6	-1676.7	-99501.3	734.5	847.5651245117188	-86.47382431030273	0.0	2022.0	2043.6	2577.2	181.0	161.4	190.5	187.2	1522365397286.5
2016-03-31 12:29:35.050	0.0	-0.25	0.0	0.0	7.0	83.0	-72.8	-17.6	-91.6	98475.8	530.0	0.013855334743857384	-65.13657569885254	0.0	0.0	-6061.2	-1812.3	-99460.9	734.5	912.2436462402344	-95.53264617919922	0.0	2024.8	2047.2	2573.2	176.9	165.6	185.6	192.2	1522710647442.2
2016-03-31 12:29:35.100	0.0	-0.25	0.0	0.0	7.0	83.0	-72.4	-19.6	-92.8	98485.7	530.0	0.013643595762550831	-73.51474685668946	0.0	0.0	-5986.8	-1754.5	-99454.5	734.4	954.6906860351562	-129.00439224243163	0.0	2022.0	2044.4	2569.2	175.7	167.0	187.2	191.9	1522735197555.0
2016-03-31 12:29:35.150	0.0	-0.25	0.0	0.0	7.0	83.0	-69.0	-19.8	-93.8	98474.8	530.0	0.01371157867833972	-76.78207092285156	0.0	0.0	-5898.1	-1634.9	-99447.4	734.8	989.1057189941406	-155.7047897338867	0.0	2016.8	2042.8	2572.8	174.7	166.0	188.4	191.2	1522759947832.7
2016-03-31 12:29:35.200	0.0	-0.25	0.0	0.0	7.0	83.0	-70.2	-21.0	-92.2	98479.2	530.0	0.013751142844557761	-81.77157592773438	0.0	0.0	-5770.1	-1483.5	-99459.3	737.8	1013.9327514648437	-184.89360961914062	0.0	2018.8	2044.8	2572.4	171.3	164.9	185.5	190.0	1522784297912.1
2016-03-31 12:29:35.250	0.0	-0.25	0.0	0.0	3.1	83.0	-70.6	-21.0	-92.6	98476.0	530.0	0.014566236361861228	-84.98588180541992	0.0	0.0	-5608.4	-1330.8	-99446.1	738.9	1040.5927673339843	-199.0585723876953	0.0	2027.2	2043.2	2572.0	172.9	163.2	184.2	185.5	1522808848006.6
2016-03-31 12:29:35.300	0.0	-0.25	0.0	0.0	3.0	83.0	-70.4	-18.0	-90.0	98485.0	530.0	0.014933189749717713	-87.12707824707032	0.0	0.0	-5165.2	-1188.9	-99431.1	738.4	1071.0768920898438	-197.8209426879883	0.0	2017.6	2039.6	2564.0	168.3	161.1	188.4	190.9	1522833298086.0
2016-03-31 12:29:35.350	0.0	-0.25	0.0	0.0	3.0	83.0	-70.0	-20.8	-90.4	98477.0	530.0	0.014294343534857035	-90.05296325683594	0.0	0.0	-5284.1	-1126.1	-99437.9	738.0	1051.1696533203126	-208.75142669677734	0.0	2014.0	2041.2	2561.2	170.4	165.1	185.4	189.8	1522857848266.1
2016-03-31 12:29:35.400	0.0	-0.25	0.0	0.0	3.0	83.0	-72.0	-20.4	-90.4	98481.0	530.0	0.014616361912339925	-91.85820617675782	0.0	0.0	-5628.6	-1054.6	-99470.7	739.0	1065.1095458984375	-217.58714141845704	0.0	2013.6	2039.6	2562.8	170.0	166.7	183.9	190.0	1522882398513.3
2016-03-31 12:29:35.450	0.0	-0.25	0.0	0.0	3.0	83.0	-72.6	-24.2	-91.4	98481.0	530.0	0.014514041505753994	-93.12822494506835	0.0	0.0	-6000.2	-972.7	-99503.0	738.7	1058.62080078125	-222.67554473876953	0.0	2018.8	2039.2	2565.2	170.0	167.9	183.8	190.1	1522906948546.8
2016-03-31 12:29:35.500	0.0	-0.25	0.0	0.0	3.0	83.0	-71.4	-23.4	-89.8	98482.2	530.0	0.015057188645005225	-90.50179290771484	0.0	0.0	-6345.6	-857.0	-99575.3	738.2	1090.302783203125	-206.16525421142578	0.0	2022.4	2039.2	2563.6	169.5	169.8	183.2	191.2	1522931498769.7
2016-03-31 12:29:35.550	0.0	-0.25	0.0	0.0	3.0	83.0	-73.0	-24.2	-88.6	98477.8	530.0	0.014781138952821493	-89.81285171508789	0.0	0.0	-6596.5	-795.8	-99605.3	735.1	1104.7366088867188	-197.944873046875	0.0	2015.6	2038.4	2564.4	170.1	169.9	185.0	192.8	1522955948830.8
2016-03-31 12:29:35.600	0.0	-0.25	0.0	0.0	3.0	83.0	-73.0	-24.6	-90.2	98484.4	530.0	0.014898877497762442	-88.97460556030273	0.0	0.0	-6741.2	-727.6	-99670.7	733.7	1127.8218505859375	-193.8690643310547	0.0	2012.0	2036.4	2565.6	169.7	171.0	184.0	194.1	1522980599032.1
2016-03-31 12:29:35.650	0.0	0.0	0.0	0.0	6.5	83.0	-71.6	-23.2	-87.6	98480.2	530.0	0.015102803241461515	-88.51706314086914	0.0	0.0	-6833.8	-730.4	-99715.0	733.4	1159.86083984375	-191.2819854736328	0.0	2019.6	2038.8	2569.2	182.2	182.3	171.4	179.0	1523005049123.8
2016-03-31 12:29:35.700	0.0	-0.25	0.0	0.0	8.0	83.0	-70.8	-24.0	-91.2	98480.0	530.0	0.015674089454114436	-88.45540618896484	0.0	0.0	-5663.0	-696.8	-99746.9	731.6	1296.895654296875	-198.73922271728514	0.0	2033.6	2040.0	2568.8	175.6	175.1	179.3	184.3	1523029599270.1
2016-03-31 12:29:35.750	0.0	-0.25	0.0	0.0	8.0	83.0	-73.2	-15.2	-89.2	98478.8	530.0	0.015392059553414583	-87.64592132568359	0.0	0.0	-3081.1	-634.1	-99798.0	731.2	1316.9116821289062	-194.8134521484375	0.0	2016.8	2037.6	2570.0	169.1	169.6	183.5	191.6	1523054049428.9
2016-03-31 12:29:35.800	0.0	-0.25	0.0	0.0	8.0	83.0	-73.0	-9.8	-89.4	98476.8	530.0	0.015092623233795167	-86.59747009277343	0.0	0.0	-434.0	-640.2	-99846.1	728.0	1365.7702392578126	-181.8240219116211	0.0	2008.4	2037.2	2574.4	169.6	168.2	185.0	193.7	1523078799734.1
2016-03-31 12:29:35.850	0.0	-0.25	0.0	0.0	8.0	83.0	-71.2	-7.2	-88.0	98483.2	530.0	0.014877804089337587	-85.86474151611328	0.0	0.0	1886.7	-611.2	-99847.7	726.1	1321.56298828125	-178.4382080078125	0.0	2005.6	2035.2	2578.8	171.3	165.7	187.6	192.9	1523103249700.4
2016-03-31 12:29:35.900	0.0	-0.25	0.0	0.0	8.0	83.0	-70.8	-2.0	-89.2	98476.0	530.0	0.014473666064441204	-84.77475662231446	0.0	0.0	3955.6	-540.9	-99794.5	724.5	1257.6968872070313	-175.973583984375	0.0	2008.4	2037.6	2576.4	172.8	163.6	189.1	191.3	1523127799886.6
2016-03-31 12:29:35.950	0.0	-0.25	0.0	0.0	8.0	83.0	-70.88888888888889	3.7777777777777777	-86.44444444444444	98487.0	530.0	0.01412009002847804	-83.51781548394098	0.0	0.0	5646.222222222223	-396.77777777777777	-99746.33333333333	725.5555555555555	1183.2676188151042	-172.46307033962674	0.0	2003.111111111111	2034.2222222222222	2581.777777777778	171.22222222222223	164.0	187.33333333333334	191.44444444444446	1523151058606.889
2016-03-31 12:29:36.000	0.0	-0.25	0.0	0.0	8.0	83.0	-71.6	6.4	-89.2	98475.0	530.0	0.013720481283962726	-81.88251876831055	0.0	0.0	7099.8	-259.5	-99754.8	727.1	1096.9119995117187	-166.14271697998046	0.0	2012.8	2035.6	2576.4	169.4	164.9	185.0	191.8	1523388295177.7
2016-03-31 12:29:36.050	0.0	-0.25	0.0	0.0	8.0	83.0	-70.8	10.0	-86.2	98482.1	530.0	0.013326169829815626	-80.58782119750977	0.0	0.0	8379.5	43.0	-99735.2	728.0	998.0996520996093	-159.41395263671876	0.0	2012.4	2038.0	2571.6	168.3	165.2	186.4	190.9	1523733645290.5
2016-03-31 12:29:36.100	0.0	-0.25	0.0	0.0	8.0	83.0	-73.5	11.7	-87.7	98475.2	530.0	0.01276547284796834	-78.89511947631836	0.0	0.0	9493.0	345.9	-99658.8	729.0	896.2929626464844	-147.99036254882813	0.0	2012.8	2035.6	2572.0	171.4	161.5	188.8	187.9	1523758095443.1
2016-03-31 12:29:36.150	0.0	-0.25	0.0	0.0	8.0	83.0	-72.4	18.6	-83.6	98485.7	530.0	0.012317473255097865	-77.39067001342774	0.0	0.0	10310.9	578.1	-99648.7	730.7	884.0067626953125	-89.35146026611328	0.0	2017.6	2035.6	2572.4	167.3	164.6	185.8	191.2	1523782845617.1
2016-03-31 12:29:36.200	0.0	-0.25	0.0	0.0	8.0	83.0	-72.9	17.7	-82.9	98484.2	530.0	0.01187850097194314	-75.72118759155273	0.0	0.0	10934.5	806.3	-99622.4	731.9	838.5825500488281	-53.04979286193848	0.0	2022.4	2036.4	2569.2	168.2	162.3	187.6	189.8	1523807295797.1
2016-03-31 12:29:36.250	0.0	-0.25	0.0	0.0	8.0	83.0	-72.5	17.7	-83.5	98482.0	530.0	0.011518543493002653	-74.28935241699219	0.0	0.0	11220.6	893.6	-99631.4	732.9	746.5160339355468	-44.748111724853516	0.0	2023.6	2038.8	2566.0	165.1	165.4	187.0	190.7	1523831845888.9
2016-03-31 12:29:36.300	0.0	-0.25	0.0	0.0	8.0	83.0	-72.9	18.7	-82.7	98477.8	530.0	0.011220166645944118	-72.69108505249024	0.0	0.0	11112.0	815.0	-99606.1	731.0	641.4715454101563	-41.82466850280762	0.0	2028.0	2033.2	2565.6	169.9	163.1	188.2	190.3	1523856296038.3
2016-03-31 12:29:36.350	0.0	-0.25	0.0	0.0	8.0	83.0	-72.1	19.7	-82.7	98483.3	530.0	0.010954985674470664	-71.84811935424804	0.0	0.0	10603.6	523.1	-99600.6	727.6	542.5897064208984	-47.072785186767575	0.0	2030.4	2042.4	2570.4	170.6	165.1	188.2	192.2	1523880846178.7
2016-03-31 12:29:36.400	0.0	-0.25	0.0	0.0	8.0	83.0	-69.7	16.7	-84.9	98482.9	530.0	0.010672043357044459	-70.6061164855957	0.0	0.0	9717.0	331.6	-99573.7	723.6	447.84038696289065	-38.591711616516115	0.0	2034.8	2039.2	2574.4	174.6	165.3	189.0	191.4	1523905496358.8
2016-03-31 12:29:36.450	0.0	-0.25	0.0	0.0	8.0	83.0	-72.6	15.0	-85.4	98481.7	530.0	0.01042692493647337	-69.58029251098633	0.0	0.0	8456.2	154.9	-99612.8	719.5	336.0789764404297	-48.34596900939941	0.0	2036.4	2043.2	2575.6	171.9	171.5	186.2	193.5	1523930046563.2
2016-03-31 12:29:36.500	0.0	-0.25	0.0	0.0	8.0	83.0	-72.66666666666667	14.444444444444445	-87.11111111111111	98482.0	530.0	0.026281795671416655	-70.17246924506293	0.0	0.0	7034.666666666667	243.11111111111111	-99591.0	714.7777777777778	277.16156005859375	-28.487130800882976	0.0	2042.6666666666667	2042.2222222222222	2574.6666666666665	176.22222222222223	170.77777777777777	190.44444444444446	189.55555555555554	1523953271904.3333
2016-03-31 12:29:36.550	0.0	-0.25	0.0	0.0	8.0	83.0	-71.18181818181819	11.181818181818182	-85.9090909090909	98486.0	530.0	0.0293694060634483	-67.51353385231711	0.0	0.0	5362.818181818182	235.27272727272728	-99585.45454545454	706.8181818181819	237.85169150612572	-4.198157939043912	0.0	2040.7272727272727	2033.4545454545455	2581.818181818182	178.72727272727272	174.1818181818182	189.1818181818182	190.9090909090909	1523977726120.818
2016-03-31 12:29:36.600	0.0	-0.25	0.0	0.0	4.166666666666667	83.0	-70.16666666666667	5.833333333333333	-88.16666666666667	98491.66666666667	530.0	0.030251248739659786	-66.21912256876628	0.0	0.0	3255.5	220.0	-99576.0	698.0	195.81228892008463	-6.223036607106526	0.0	2056.6666666666665	2044.6666666666667	2584.0	183.83333333333334	179.16666666666666	187.5	188.33333333333334	1524006770319.0
2016-03-31 12:29:36.650	0.0	-0.25	0.0	0.0	3.0	83.0	-72.5	1.5	-85.9	98485.4	530.0	0.03092197310179472	-64.48496475219727	0.0	0.0	1896.2	161.5	-99501.4	691.8	160.46612091064452	0.2654622733592987	0.0	2050.4	2042.8	2589.6	183.9	171.4	195.2	191.1	1524028147103.3
2016-03-31 12:29:36.700	0.0	-0.25	0.0	0.0	3.0	83.0	-72.4	0.4	-87.4	98484.4	530.0	0.030033103562891482	-61.174332809448245	0.0	0.0	160.2	-31.0	-99465.9	685.6	110.25520324707031	2.9595250129699706	0.0	2044.0	2043.2	2589.2	183.1	174.8	191.2	193.8	1524052597258.9
2016-03-31 12:29:36.750	0.0	-0.25	0.0	0.0	3.0	83.0	-72.3	-5.7	-90.1	98485.9	530.0	0.029943815805017947	-60.36617660522461	0.0	0.0	-1984.6	-117.3	-99439.4	680.4	90.2297233581543	-8.785796737670898	0.0	2049.6	2042.4	2588.4	186.6	176.9	190.6	189.7	1524077147356.6
2016-03-31 12:29:36.800	0.0	-0.25	0.0	0.0	3.0	83.0	-71.4	-14.0	-89.6	98483.8	530.0	0.030935302004218103	-59.38847427368164	0.0	0.0	-4220.5	-153.2	-99341.6	675.6	104.09679718017578	-10.864087963104248	0.0	2054.0	2041.6	2590.8	190.7	178.1	190.3	187.2	1524101797573.6
2016-03-31 12:29:36.850	0.0	-0.25	0.0	0.0	3.0	83.0	-73.7	-18.5	-88.1	98484.1	530.0	0.03072456493973732	-59.36026153564453	0.0	0.0	-6186.4	-176.2	-99312.5	673.7	141.4433380126953	-22.02783794403076	0.0	2056.0	2039.6	2592.4	187.9	182.0	186.8	189.4	1524126247661.9
2016-03-31 12:29:36.900	0.0	-0.25	0.0	0.0	3.0	83.0	-72.4	-22.0	-88.8	98487.1	530.0	0.03111424408853054	-57.69932403564453	0.0	0.0	-7814.2	-168.2	-99363.5	670.6	169.35215759277344	-22.543226623535155	0.0	2051.6	2038.8	2589.2	189.1	183.6	186.6	189.5	1524150897851.1
2016-03-31 12:29:36.950	0.0	-0.25	0.0	0.0	3.0	83.0	-71.2	-25.8	-87.2	98482.5	530.0	0.032714783772826196	-58.046392822265624	0.0	0.0	-9095.9	-128.5	-99348.4	670.0	245.09807739257812	-18.44237937927246	0.0	2046.4	2046.0	2589.2	189.3	183.5	187.1	188.4	1524175247927.6
2016-03-31 12:29:37.000	0.0	-0.25	0.0	0.0	3.0	83.0	-71.88888888888889	-27.444444444444443	-87.66666666666667	98485.22222222222	530.0	0.033096757200029164	-57.98993131849501	0.0	0.0	-9955.888888888889	-122.11111111111111	-99335.44444444444	674.3333333333334	314.48131985134546	-19.67582893371582	0.0	2052.8888888888887	2040.888888888889	2586.6666666666665	188.22222222222223	180.66666666666666	186.44444444444446	187.66666666666666	1524436328979.0
2016-03-31 12:29:37.050	0.0	-0.25	0.0	0.0	3.0	83.0	-73.0909090909091	-28.181818181818183	-84.9090909090909	98482.27272727272	530.0	0.03318615494803949	-57.95911338112571	0.0	0.0	-10442.727272727272	-102.9090909090909	-99339.09090909091	676.6363636363636	377.25860595703125	-25.284374930641867	0.0	2051.2727272727275	2049.090909090909	2581.818181818182	185.63636363636363	180.0909090909091	187.54545454545453	189.0909090909091	1524757864021.5454
2016-03-31 12:29:37.100	0.0	-0.25	0.0	0.0	3.0	83.0	-73.3	-29.7	-85.7	98486.8	530.0	0.03475776389241218	-58.27756576538086	0.0	0.0	-10658.2	-42.1	-99364.1	678.2	464.009033203125	-19.781302642822265	0.0	2048.0	2042.4	2582.4	184.4	180.2	187.5	190.7	1524783698485.8
2016-03-31 12:29:37.150	0.0	-0.25	0.0	0.0	3.0	83.0	-71.3	-29.3	-87.9	98484.4	530.0	0.035209011659026145	-59.11842422485351	0.0	0.0	-10686.7	-77.8	-99372.4	679.8	539.7972045898438	-16.572207832336424	0.0	2038.0	2043.2	2584.0	184.7	177.5	188.6	191.3	1524808148611.0
2016-03-31 12:29:37.200	0.0	-0.25	0.0	0.0	3.0	83.0	-72.3	-32.1	-89.1	98482.3	530.0	0.03498807474970818	-58.97849998474121	0.0	0.0	-10490.1	-162.7	-99388.8	683.0	595.0724609375	-17.206715679168703	0.0	2035.6	2047.2	2580.8	181.5	175.9	188.8	193.5	1524832798809.2
2016-03-31 12:29:37.250	0.0	-0.25	0.0	0.0	3.0	83.0	-73.66666666666667	-29.666666666666668	-84.77777777777777	98484.0	530.0	0.03520399580399195	-58.718054877387154	0.0	0.0	-10229.333333333334	-206.22222222222223	-99408.33333333333	688.0	646.4966837565104	-15.099873224894205	0.0	2039.111111111111	2045.3333333333333	2575.1111111111113	180.0	174.22222222222223	188.11111111111111	192.88888888888889	1524856024152.5557
2016-03-31 12:29:37.300	0.0	-0.25	0.0	0.0	3.0	83.0	-73.27272727272727	-29.818181818181817	-86.72727272727273	98488.72727272728	530.0	0.03574568236416036	-59.463165976784445	0.0	0.0	-9984.818181818182	-269.3636363636364	-99374.81818181818	692.5454545454545	707.0007213245739	-17.876082680442117	0.0	2028.3636363636363	2047.2727272727273	2573.818181818182	180.54545454545453	170.72727272727272	189.9090909090909	191.36363636363637	1524880660264.0
2016-03-31 12:29:37.350	0.0	-0.25	0.0	0.0	3.0	83.0	-70.8	-28.6	-87.2	98481.6	530.0	0.03607449010014534	-59.73917808532715	0.0	0.0	-9695.2	-356.0	-99395.4	696.4	765.8257934570313	-18.37603015899658	0.0	2029.6	2044.0	2574.0	176.8	171.3	188.4	194.7	1524906349175.5
2016-03-31 12:29:37.400	0.0	-0.25	0.0	0.0	3.0	83.0	-72.88888888888889	-29.333333333333332	-86.22222222222223	98480.11111111111	530.0	0.03567183886965116	-58.89808993869357	0.0	0.0	-9365.222222222223	-337.1111111111111	-99422.55555555556	701.8888888888889	803.0450507269966	-18.86638005574544	0.0	2030.6666666666667	2043.5555555555557	2574.6666666666665	175.77777777777777	170.33333333333334	188.88888888888889	193.33333333333334	1524931956871.3333
2016-03-31 12:29:37.450	0.0	-0.25	0.0	0.0	3.0	83.0	-74.55555555555556	-28.555555555555557	-85.44444444444444	98479.55555555556	530.0	0.03562687337398529	-57.87416627671983	0.0	0.0	-9182.444444444445	-319.77777777777777	-99417.55555555556	704.2222222222222	832.4512193467882	-15.79437330034044	0.0	2023.5555555555557	2043.5555555555557	2573.777777777778	176.33333333333334	169.11111111111111	189.66666666666666	193.55555555555554	1524954224795.3333
2016-03-31 12:29:37.500	0.0	-0.25	0.0	0.0	3.0	83.0	-73.36363636363636	-29.545454545454547	-88.0909090909091	98478.36363636363	530.0	0.036905648694797	-59.189610567959875	0.0	0.0	-8881.0	-306.1818181818182	-99377.18181818182	707.7272727272727	888.7019375887784	-14.761321327903055	0.0	2030.5454545454545	2047.6363636363637	2571.6363636363635	176.8181818181818	164.9090909090909	194.0	192.0909090909091	1524978678976.818
2016-03-31 12:29:37.550	0.0	-0.25	0.0	0.0	3.0	83.0	-72.33333333333333	-29.0	-87.66666666666667	98486.22222222222	530.0	0.03715245011779997	-61.147117614746094	0.0	0.0	-8582.888888888889	-250.66666666666666	-99326.44444444444	713.1111111111111	950.4598117404514	-22.545088238186306	0.0	2018.6666666666667	2044.888888888889	2571.1111111111113	173.44444444444446	166.11111111111111	191.88888888888889	193.33333333333334	1525003325069.3333
2016-03-31 12:29:37.600	0.0	-0.25	0.0	0.0	3.0	83.0	-71.8	-29.8	-85.0	98482.9	530.0	0.03838431276381016	-65.07695159912109	0.0	0.0	-8416.8	-57.9	-99303.1	716.5	1026.1205993652343	-41.84601669311523	0.0	2020.4	2046.0	2573.6	173.2	166.8	193.8	191.0	1525026594936.6
2016-03-31 12:29:37.650	0.0	-0.25	0.0	0.0	3.0	83.0	-72.8	-29.2	-87.2	98481.7	530.0	0.0389612790197134	-66.2577392578125	0.0	0.0	-8442.3	124.0	-99308.2	719.6	1086.0821044921875	-47.25743103027344	0.0	2022.8	2042.8	2578.4	171.8	169.9	190.1	192.8	1525051145135.0
2016-03-31 12:29:37.700	0.0	-0.25	0.0	0.0	3.0	83.0	-73.4	-29.8	-84.6	98481.0	530.0	0.0396438330411911	-68.12790374755859	0.0	0.0	-8651.2	333.8	-99396.6	723.5	1143.3697021484375	-60.959130096435544	0.0	2018.8	2040.8	2574.0	170.0	173.5	188.5	192.3	1525075695318.2
2016-03-31 12:29:37.750	0.0	-0.25	0.0	0.0	3.0	83.0	-74.0	-30.0	-85.6	98486.2	530.0	0.040025020763278005	-65.59829940795899	0.0	0.0	-8919.6	376.5	-99428.6	726.4	1177.5985595703125	-33.54580116271973	0.0	2014.8	2039.6	2572.8	173.4	171.1	188.3	192.4	1525100245431.0
2016-03-31 12:29:37.800	0.0	-0.25	0.0	0.0	3.0	83.0	-77.0	-32.2	-86.2	98478.3	530.0	0.040739738196134564	-65.01312026977538	0.0	0.0	-9132.4	237.2	-99482.0	731.1	1205.1112060546875	-22.14248695373535	0.0	2016.4	2042.0	2571.6	171.9	171.9	185.8	194.2	1525124695525.7
2016-03-31 12:29:37.850	0.0	-0.25	0.0	0.0	3.0	83.0	-74.2	-33.8	-86.6	98488.2	530.0	0.04092542678117752	-63.46595497131348	0.0	0.0	-9233.3	59.8	-99530.9	734.7	1220.9580688476562	-11.524114990234375	0.0	2015.6	2044.8	2569.6	172.7	169.9	186.3	194.7	1525149145714.8
2016-03-31 12:29:37.900	0.0	-0.25	0.0	0.0	3.0	83.0	-72.2	-32.6	-86.2	98478.9	530.0	0.04113296866416931	-63.275302505493165	0.0	0.0	-9313.9	-195.0	-99602.8	740.0	1224.931103515625	-12.353857612609863	0.0	2012.8	2045.2	2567.6	170.8	171.4	181.5	197.1	1525173795827.8
2016-03-31 12:29:37.950	0.0	0.0	0.0	0.0	4.5	83.0	-71.4	-33.4	-84.6	98484.6	530.0	0.041591911017894743	-63.598588943481445	0.0	0.0	-9422.9	-411.8	-99730.7	744.5	1327.1011596679687	-7.523259329795837	0.0	2016.8	2047.6	2566.4	175.7	176.7	174.4	190.3	1525198345977.3
2016-03-31 12:29:38.000	0.0	0.25	0.0	0.0	8.0	83.0	-71.4	-31.8	-87.4	98475.2	530.0	0.04245688021183014	-64.85847473144531	0.0	0.0	-8992.7	-691.1	-99805.1	747.2	1416.9184448242188	8.44720525741577	0.0	2026.8	2048.4	2561.2	177.1	176.3	171.1	187.0	1525436796053.7
2016-03-31 12:29:38.050	0.0	0.25	0.0	0.0	8.0	83.0	-71.8	-25.0	-88.2	98480.4	530.0	0.04247131496667862	-65.62550888061523	0.0	0.0	-7069.7	-984.1	-99886.5	751.1	1549.1311157226562	32.85153312683106	0.0	2018.4	2050.4	2560.0	171.2	169.6	177.2	192.5	1525782146294.7
2016-03-31 12:29:38.100	0.0	0.25	0.0	0.0	8.0	83.0	-69.4	-20.2	-89.0	98481.0	530.0	0.04217027500271797	-66.17175979614258	0.0	0.0	-4595.2	-1188.8	-99991.8	755.0	1558.7140014648437	53.717232131958006	0.0	2006.0	2049.2	2559.2	167.4	167.5	178.2	196.0	1525806696407.5
2016-03-31 12:29:38.150	0.0	0.25	0.0	0.0	8.0	83.0	-68.2	-15.4	-88.2	98479.8	530.0	0.041877665743231776	-66.71362228393555	0.0	0.0	-2274.7	-1329.9	-100095.1	757.9	1554.5165893554688	49.863563537597656	0.0	2001.2	2050.4	2558.4	167.6	168.1	177.7	195.5	1525831246636.4
2016-03-31 12:29:38.200	0.0	0.25	0.0	0.0	8.0	83.0	-69.8	-9.0	-88.2	98481.4	530.0	0.04143133908510208	-66.88441009521485	0.0	0.0	-216.9	-1394.7	-100250.0	761.1	1533.0353881835938	36.98980445861817	0.0	2006.0	2050.0	2561.2	164.9	170.7	174.1	198.0	1525855796676.1
2016-03-31 12:29:38.250	0.0	0.25	0.0	0.0	8.0	83.0	-67.4	-5.8	-88.2	98478.9	530.0	0.04108039289712906	-67.12555084228515	0.0	0.0	1835.9	-1461.7	-100366.2	764.8	1479.4827758789063	25.572416687011717	0.0	2007.6	2050.0	2564.4	164.6	167.6	175.0	198.7	1525880346883.8
2016-03-31 12:29:38.300	0.0	0.25	0.0	0.0	8.0	83.0	-68.6	-3.8	-88.2	98479.1	530.0	0.04058378040790558	-67.42572784423828	0.0	0.0	4006.3	-1451.8	-100459.5	768.0	1410.7179321289063	12.330986547470093	0.0	2008.0	2052.8	2576.4	163.7	164.8	178.7	197.5	1525904896987.4
2016-03-31 12:29:38.350	0.0	0.25	0.0	0.0	8.0	83.0	-70.4	7.2	-86.0	98478.2	530.0	0.04015254005789757	-67.42605590820312	0.0	0.0	6158.7	-1297.9	-100495.6	772.0	1326.525830078125	-0.22480851411819466	0.0	2010.4	2045.6	2586.4	162.2	161.3	181.1	197.4	1525929447207.2
2016-03-31 12:29:38.400	0.0	0.25	0.0	0.0	8.0	83.0	-69.8	11.4	-86.6	98477.6	530.0	0.03973989486694336	-66.96892547607422	0.0	0.0	8148.7	-982.8	-100418.5	776.3	1226.6136108398437	-11.536627769470215	0.0	2010.0	2041.6	2592.0	162.1	159.0	185.2	193.8	1525953897271.1
2016-03-31 12:29:38.450	0.0	0.25	0.0	0.0	8.0	83.0	-68.8	13.6	-85.6	98479.5	530.0	0.03948325552046299	-66.41937942504883	0.0	0.0	9775.3	-613.9	-100349.3	781.8	1113.5458374023438	-18.200513076782226	0.0	2007.2	2042.0	2595.2	162.3	156.3	186.5	191.3	1525978447484.8
2016-03-31 12:29:38.500	0.0	0.25	0.0	0.0	8.0	83.0	-72.4	16.0	-83.2	98479.9	530.0	0.039021730050444604	-65.9987922668457	0.0	0.0	11046.6	-505.9	-100320.3	787.1	990.1833251953125	-22.784856224060057	0.0	2012.0	2044.8	2589.2	157.9	158.5	179.6	197.6	1526002897567.2
2016-03-31 12:29:38.550	0.0	0.25	0.0	0.0	8.0	83.0	-68.0	18.8	-86.8	98478.4	530.0	0.038521988317370415	-65.68036499023438	0.0	0.0	11795.5	-425.4	-100363.1	792.4	860.3712097167969	-26.477034187316896	0.0	2013.6	2047.6	2581.2	157.7	160.2	178.2	195.8	1526027547701.6
2016-03-31 12:29:38.600	0.0	0.25	0.0	0.0	8.0	83.0	-70.85714285714286	23.142857142857142	-84.28571428571429	98487.14285714286	530.0	0.038197294409785955	-65.37140437534877	0.0	0.0	12019.142857142857	-326.2857142857143	-100421.57142857143	796.8571428571429	734.0971243722098	-28.21365683419364	0.0	2022.857142857143	2047.4285714285713	2575.4285714285716	153.0	160.85714285714286	177.42857142857142	200.0	1526051311126.1428
2016-03-31 12:29:38.650	0.0	0.25	0.0	0.0	8.0	83.0	-67.6	20.0	-83.6	98475.8	530.0	0.03788067027926445	-65.04797897338867	0.0	0.0	11564.3	-352.1	-100424.2	801.2	660.1346618652344	-3.920716857910157	0.0	2024.8	2043.2	2567.2	159.4	157.7	177.9	195.1	1526076648064.6
2016-03-31 12:29:38.700	0.0	0.25	0.0	0.0	8.0	83.0	-67.4	17.4	-83.4	98481.6	530.0	0.037585294991731646	-64.9014907836914	0.0	0.0	10361.7	-575.8	-100350.6	804.0	615.2911804199218	42.15254669189453	0.0	2032.0	2048.4	2558.4	166.2	156.6	176.5	191.5	1526101098202.1
2016-03-31 12:29:38.750	0.0	0.25	0.0	0.0	8.0	83.0	-68.0	17.2	-85.6	98478.9	530.0	0.03733951523900032	-64.8866973876953	0.0	0.0	8892.6	-833.1	-100210.8	804.0	542.7878967285156	43.434295082092284	0.0	2033.2	2049.6	2561.6	170.0	157.2	176.6	190.9	1526125648305.9
2016-03-31 12:29:38.800	0.0	0.25	0.0	0.0	8.0	83.0	-67.8	14.6	-85.4	98485.0	530.0	0.03706040568649769	-64.783984375	0.0	0.0	7302.2	-894.4	-100181.9	803.4	428.2953369140625	33.83955593109131	0.0	2035.2	2049.2	2565.2	168.3	163.2	174.6	191.9	1526150198488.9
2016-03-31 12:29:38.850	0.0	0.25	0.0	0.0	8.0	83.0	-70.0	12.8	-88.4	98477.0	530.0	0.036852530762553216	-64.67813491821289	0.0	0.0	5658.8	-832.6	-100124.5	799.7	352.64092407226565	24.216449165344237	0.0	2040.8	2049.6	2568.0	171.2	164.5	175.8	191.9	1526174748678.1
2016-03-31 12:29:38.900	0.0	0.25	0.0	0.0	8.0	83.0	-68.4	8.0	-86.8	98482.3	530.0	0.036599090322852135	-64.56251602172851	0.0	0.0	4092.8	-653.6	-100083.7	796.5	310.6624816894531	21.206200790405273	0.0	2040.4	2048.8	2576.4	171.9	166.6	178.4	189.7	1526199298757.4
2016-03-31 12:29:38.950	0.0	0.25	0.0	0.0	6.4	83.0	-70.4	5.6	-88.8	98481.4	530.0	0.03650521412491799	-64.40132904052734	0.0	0.0	2594.5	-462.0	-99953.1	793.0	230.23721313476562	23.83759994506836	0.0	2041.6	2046.8	2580.8	179.0	167.7	178.9	183.6	1526223848983.3
2016-03-31 12:29:39.000	0.0	0.25	0.0	0.0	4.0	83.0	-72.0	1.3333333333333333	-85.33333333333333	98483.22222222222	530.0	0.03645724223719703	-64.43313852945964	0.0	0.0	1451.111111111111	-395.1111111111111	-99898.0	789.6666666666666	184.19237433539496	17.404772652520073	0.0	2056.8888888888887	2044.888888888889	2577.3333333333335	179.66666666666666	172.77777777777777	175.44444444444446	183.11111111111111	1526484774440.6667
2016-03-31 12:29:39.050	0.0	0.25	0.0	0.0	4.0	83.0	-67.81818181818181	0.18181818181818182	-87.81818181818181	98482.18181818182	530.0	0.03640384464101358	-64.37344984574752	0.0	0.0	962.7272727272727	-519.2727272727273	-99819.81818181818	786.3636363636364	171.1090282093395	9.81927968155254	0.0	2041.8181818181818	2046.5454545454545	2577.4545454545455	180.54545454545453	168.27272727272728	177.72727272727272	185.8181818181818	1526806501284.0908
2016-03-31 12:29:39.100	0.0	0.25	0.0	0.0	4.0	83.0	-67.8	-1.0	-88.6	98477.9	530.0	0.037757673487067225	-64.59727821350097	0.0	0.0	803.8	-634.4	-99744.0	784.6	142.69521942138672	-10.899068450927734	0.0	2047.2	2047.6	2576.4	180.9	166.1	178.0	186.5	1526832099367.7
2016-03-31 12:29:39.150	0.0	0.25	0.0	0.0	4.0	83.0	-68.8	3.6	-88.0	98484.0	530.0	0.038206282258033755	-64.07665748596192	0.0	0.0	788.2	-705.5	-99644.3	783.5	115.55226516723633	-22.871550369262696	0.0	2045.2	2044.0	2570.0	181.5	163.1	179.9	186.0	1526856549569.3
2016-03-31 12:29:39.200	0.0	0.25	0.0	0.0	4.0	83.0	-67.4	1.8	-88.6	98490.2	530.0	0.03710951320827007	-62.29616012573242	0.0	0.0	718.6	-679.0	-99580.1	782.5	80.17124404907227	-27.841647720336915	0.0	2045.2	2044.0	2569.2	178.6	165.4	178.5	187.2	1526881199670.0
2016-03-31 12:29:39.250	0.0	0.25	0.0	0.0	4.0	83.0	-68.11111111111111	1.6666666666666667	-86.33333333333333	98488.0	530.0	0.03647892880770895	-61.36968231201172	0.0	0.0	586.2222222222222	-518.3333333333334	-99538.0	783.2222222222222	61.1602414449056	-34.087622748480904	0.0	2051.5555555555557	2051.5555555555557	2569.3333333333335	178.88888888888889	165.0	178.44444444444446	185.0	1526904580745.5557
2016-03-31 12:29:39.300	0.0	0.25	0.0	0.0	4.0	83.0	-71.3	0.5	-89.3	98486.8	530.0	0.035023199394345284	-61.970254516601564	0.0	0.0	296.3	-308.5	-99496.5	781.8	40.867060852050784	-49.709114456176756	0.0	2044.0	2042.8	2568.0	178.8	167.1	177.4	185.0	1526927894964.0
2016-03-31 12:29:39.350	0.0	0.25	0.0	0.0	4.0	83.0	-72.1	-0.3	-86.9	98478.3	530.0	0.03358225002884865	-62.124742126464845	0.0	0.0	-143.4	154.7	-99457.3	781.3	23.798306274414063	-70.64103355407715	0.0	2050.0	2042.4	2570.0	180.6	168.2	179.5	179.9	1526952445162.6
2016-03-31 12:29:39.400	0.0	0.25	0.0	0.0	4.0	83.0	-71.7	0.1	-87.7	98485.1	530.0	0.034259024634957315	-59.20315704345703	0.0	0.0	-603.0	761.7	-99377.3	779.1	15.92083044052124	-52.71612548828125	0.0	2054.0	2042.0	2570.0	178.9	171.4	180.9	178.8	1526976895247.9
2016-03-31 12:29:39.450	0.0	0.25	0.0	0.0	4.0	83.0	-75.1	-3.9	-86.7	98477.8	530.0	0.034156788140535355	-60.0042911529541	0.0	0.0	-964.2	1251.3	-99376.8	782.1	19.03197431564331	-39.51190032958984	0.0	2053.6	2045.2	2573.6	176.9	173.3	178.4	177.1	1527001545486.0
2016-03-31 12:29:39.500	0.0	0.25	0.0	0.0	4.0	83.0	-76.1	-5.1	-84.7	98479.0	530.0	0.034222497045993804	-58.36651382446289	0.0	0.0	-1219.7	1681.4	-99310.2	781.0	15.093715643882751	-29.433013725280762	0.0	2054.4	2040.4	2570.0	179.2	171.4	182.8	173.9	1527026095574.5
2016-03-31 12:29:39.550	0.0	0.25	0.0	0.0	4.0	83.0	-74.9	-3.1	-87.7	98480.3	530.0	0.03434090502560139	-55.31231269836426	0.0	0.0	-1399.9	1865.6	-99288.1	779.7	-1.9824904918670654	-4.703183633089066	0.0	2050.8	2039.2	2566.8	177.3	174.1	180.9	176.6	1527050545806.4
2016-03-31 12:29:39.600	0.0	0.25	0.0	0.0	4.0	83.0	-73.7	-4.3	-85.3	98483.8	530.0	0.035185466334223744	-57.319101333618164	0.0	0.0	-1627.7	1897.6	-99272.2	778.7	16.317111492156982	-15.478483486175538	0.0	2050.8	2040.0	2572.8	180.1	175.2	179.0	175.3	1527074895855.3
2016-03-31 12:29:39.650	0.0	0.25	0.0	0.0	4.0	83.0	-74.3	-5.3	-84.3	98485.7	530.0	0.035865502431988716	-56.04673194885254	0.0	0.0	-1801.8	1980.2	-99216.6	780.3	-3.1967607736587524	-3.9090717315673826	0.0	2052.0	2043.2	2571.2	178.9	173.4	181.8	172.5	1527099646169.7
2016-03-31 12:29:39.700	0.0	0.25	0.0	0.0	4.0	83.0	-76.9	-5.3	-86.5	98483.9	530.0	0.03384186439216137	-49.991284942626955	0.0	0.0	-1867.0	1979.4	-99219.4	779.5	-13.34636468887329	9.624121952056885	0.0	2051.6	2042.4	2568.4	177.5	175.4	179.5	175.3	1527124196184.8
2016-03-31 12:29:39.750	0.0	0.25	0.0	0.0	4.0	83.0	-76.1	-6.1	-87.9	98481.5	530.0	0.03402980789542198	-48.291259765625	0.0	0.0	-2012.4	1923.0	-99191.4	779.7	-17.91398391723633	20.838551425933836	0.0	2056.4	2044.4	2570.0	178.3	175.1	180.3	172.6	1527148646331.3
2016-03-31 12:29:39.800	0.0	0.25	0.0	0.0	3.888888888888889	83.0	-77.66666666666667	-5.888888888888889	-83.44444444444444	98483.11111111111	530.0	0.034568051911062665	-44.35317866007487	0.0	0.0	-2043.7777777777778	1868.3333333333333	-99184.0	781.0	-40.92956309848361	52.40657297770182	0.0	2058.222222222222	2041.7777777777778	2572.4444444444443	176.33333333333334	174.77777777777777	180.77777777777777	173.22222222222223	1527171905076.3333
2016-03-31 12:29:39.850	0.0	0.25	0.0	0.0	3.0	83.0	-76.0	-5.636363636363637	-85.45454545454545	98482.72727272728	530.0	0.03499788350679658	-42.72413947365501	0.0	0.0	-1966.0	1670.7272727272727	-99168.09090909091	779.8181818181819	-50.90624341097745	71.33983820134944	0.0	2061.818181818182	2047.6363636363637	2574.909090909091	182.8181818181818	177.36363636363637	175.8181818181818	170.1818181818182	1527196480529.2727
2016-03-31 12:29:39.900	0.0	0.25	0.0	0.0	3.0	83.0	-75.7	-6.1	-85.9	98481.7	530.0	0.036047110334038734	-41.751332473754886	0.0	0.0	-1362.6	1721.4	-99076.9	780.0	-48.58440895080567	83.06089553833007	0.0	2063.2	2043.6	2573.2	183.4	176.8	178.7	166.6	1527222296798.2
2016-03-31 12:29:39.950	0.0	0.25	0.0	0.0	3.0	83.0	-75.9	-1.3	-86.5	98477.0	530.0	0.037879063934087756	-40.535905838012695	0.0	0.0	-49.8	1633.9	-98958.4	780.2	-47.31479415893555	105.99616165161133	0.0	2060.0	2044.8	2574.4	183.4	172.1	181.4	168.4	1527246846898.9
2016-03-31 12:29:40.000	0.0	0.25	0.0	0.0	3.0	83.0	-74.1	2.9	-84.5	98480.2	530.0	0.03842776082456112	-39.373945236206055	0.0	0.0	1713.1	1576.8	-98820.8	783.0	-62.64913444519043	118.6094482421875	0.0	2054.8	2047.6	2571.6	180.6	168.9	183.2	169.3	1527485297109.5
2016-03-31 12:29:40.050	0.0	0.25	0.0	0.0	3.0	83.0	-76.4	7.0	-84.2	98484.9	530.0	0.03914318606257439	-36.422586822509764	0.0	0.0	3480.7	1346.3	-98704.0	783.1	-103.46497497558593	131.52237548828126	0.0	2051.6	2049.6	2568.0	181.1	167.1	183.3	172.1	1527830547194.9
2016-03-31 12:29:40.100	0.0	0.25	0.0	0.0	3.0	83.0	-76.7	10.1	-84.3	98481.7	530.0	0.0393329419195652	-34.17989845275879	0.0	0.0	5007.8	1143.4	-98626.3	785.9	-150.21798858642578	132.5217269897461	0.0	2054.4	2047.6	2568.4	180.0	166.2	183.6	172.2	1527855197420.8
2016-03-31 12:29:40.150	0.0	0.25	0.0	0.0	3.0	83.0	-74.5	11.3	-84.1	98483.2	530.0	0.04067893214523792	-31.893144416809083	0.0	0.0	6203.2	884.8	-98521.0	786.9	-211.79600524902344	152.96859436035157	0.0	2056.8	2046.0	2565.2	183.9	163.8	184.1	171.6	1527879547460.5
2016-03-31 12:29:40.200	0.0	0.25	0.0	0.0	3.0	83.0	-74.5	14.3	-83.3	98486.5	530.0	0.039576882123947145	-32.207565498352054	0.0	0.0	7036.6	427.4	-98438.4	790.0	-276.9205596923828	148.68443756103517	0.0	2060.4	2048.4	2560.4	185.6	163.1	180.7	172.5	1527904097668.0
2016-03-31 12:29:40.250	0.0	0.25	0.0	0.0	3.0	83.0	-69.3	13.3	-83.5	98480.9	530.0	0.04036027304828167	-30.11671733856201	0.0	0.0	7470.3	-39.7	-98379.9	793.1	-345.9112976074219	143.62178649902344	0.0	2058.8	2050.0	2557.2	187.7	163.4	177.7	171.4	1527928747857.1
2016-03-31 12:29:40.300	0.0	0.25	0.0	0.0	3.0	83.0	-72.4	14.6	-83.8	98485.2	530.0	0.04132922813296318	-29.329832458496092	0.0	0.0	7642.6	-474.4	-98315.9	792.5	-398.8757598876953	144.0856964111328	0.0	2059.6	2055.6	2556.8	190.9	163.9	177.7	170.8	1527953298040.3
2016-03-31 12:29:40.350	0.0	0.25	0.0	0.0	3.0	83.0	-70.3	15.7	-84.3	98487.8	530.0	0.04084475003182888	-26.427605438232423	0.0	0.0	7625.1	-803.1	-98233.1	791.7	-477.85846557617185	146.88160858154296	0.0	2060.8	2052.0	2555.6	194.0	164.4	177.1	169.5	1527977748037.2
2016-03-31 12:29:40.400	0.0	0.25	0.0	0.0	3.0	83.0	-68.6	16.0	-84.4	98490.2	530.0	0.042166154086589816	-23.594358253479005	0.0	0.0	7460.3	-1150.4	-98217.6	791.3	-551.7937561035156	148.83028717041014	0.0	2066.8	2050.0	2556.0	192.4	169.1	170.8	173.5	1528002298308.8
2016-03-31 12:29:40.450	0.0	0.25	0.0	0.0	3.0	83.0	-68.8	16.8	-84.4	98481.2	530.0	0.04160125032067299	-21.593631553649903	0.0	0.0	7204.1	-1400.7	-98236.1	788.9	-614.7405334472656	134.529207611084	0.0	2069.6	2055.2	2562.4	196.0	169.4	171.9	170.6	1528026848366.8
2016-03-31 12:29:40.500	0.0	0.25	0.0	0.0	3.0	83.0	-68.3	17.1	-86.1	98484.8	530.0	0.04416639842092991	-19.854051208496095	0.0	0.0	6992.9	-1527.8	-98269.5	784.1	-660.0594909667968	155.11969757080078	0.0	2070.8	2055.6	2564.0	195.7	173.2	170.6	173.6	1528051498580.5
2016-03-31 12:29:40.550	0.0	0.25	0.0	0.0	3.0	83.0	-71.4	15.4	-85.6	98486.1	530.0	0.045141438394784926	-20.05690288543701	0.0	0.0	6811.0	-1604.6	-98289.6	779.7	-708.6000183105468	147.68214416503906	0.0	2074.8	2047.6	2567.2	198.1	173.3	171.9	172.2	1528075848638.4
2016-03-31 12:29:40.600	0.0	0.25	0.0	0.0	3.0	83.0	-67.2	16.2	-86.0	98487.0	530.0	0.04621353633701801	-16.891281032562254	0.0	0.0	6687.3	-1599.1	-98281.4	773.2	-825.6774230957031	132.93561325073242	0.0	2076.4	2045.6	2570.8	200.0	174.5	172.8	173.0	1528100398824.6
2016-03-31 12:29:40.650	0.0	0.25	0.0	0.0	3.0	83.0	-67.5	16.9	-87.9	98484.2	530.0	0.04440911635756493	-9.225348043441773	0.0	0.0	6546.2	-1605.5	-98360.5	766.7	-899.0696716308594	99.52962036132813	0.0	2074.8	2052.4	2575.2	197.6	180.4	169.1	176.5	1528124948974.1
2016-03-31 12:29:40.700	0.0	0.25	0.0	0.0	3.0	83.0	-69.6	15.2	-84.8	98494.2	529.8	0.04384987205266953	-5.595282745361328	0.0	0.0	6447.4	-1495.4	-98465.8	762.6	-959.5025756835937	60.119320678710935	0.0	2068.8	2054.4	2577.6	197.0	181.8	168.4	176.2	1528147294689.4
2016-03-31 12:29:40.750	0.0	0.25	0.0	0.0	3.0	83.0	-69.18181818181819	17.90909090909091	-83.18181818181819	98486.36363636363	529.8181818181819	0.04354970394210382	-3.0006285472349687	0.0	0.0	6372.636363636364	-1387.909090909091	-98564.36363636363	758.4545454545455	-1019.9521206942471	35.126958500255235	0.0	2090.5454545454545	2048.7272727272725	2579.2727272727275	197.27272727272728	182.54545454545453	167.72727272727272	176.0	1528172837632.0908
2016-03-31 12:29:40.800	0.0	0.25	0.0	0.0	3.0	83.0	-68.9	16.9	-86.5	98483.7	529.8	0.04290423467755318	-1.4987090587615968	0.0	0.0	6319.0	-1215.6	-98720.2	754.3	-1071.1644775390625	4.888890042901039	0.0	2084.8	2054.0	2575.6	194.6	185.6	166.6	177.1	1528198699422.7
2016-03-31 12:29:40.850	0.0	0.25	0.0	0.0	3.0	83.0	-70.66666666666667	17.77777777777778	-85.55555555555556	98483.77777777778	529.6666666666666	0.042789426942666374	0.8698038061459861	0.0	0.0	6434.444444444444	-885.2222222222222	-98810.77777777778	748.1111111111111	-1099.4527452256943	-11.889836682213677	0.0	2080.8888888888887	2045.3333333333333	2574.6666666666665	194.66666666666666	186.0	171.44444444444446	175.55555555555554	1528221847028.3333
2016-03-31 12:29:40.900	0.0	0.25	0.0	0.0	3.0	83.0	-67.6	17.6	-84.4	98481.8	529.6	0.043523364886641505	2.452349853515625	0.0	0.0	6552.6	-553.5	-98834.7	742.4	-1141.6220581054688	-18.840166282653808	0.0	2088.0	2042.0	2579.2	199.2	183.6	175.0	172.3	1528245294750.4
2016-03-31 12:29:40.950	0.0	0.25	0.0	0.0	3.0	83.0	-72.0	20.0	-84.4	98484.2	529.5	0.043868313729763034	2.8392378091812134	0.0	0.0	6693.5	-227.6	-98822.1	738.4	-1164.0022583007812	-19.552510070800782	0.0	2088.4	2038.0	2582.0	197.3	185.0	175.4	172.7	1528269844857.2
2016-03-31 12:29:41.000	0.0	0.0	0.0	0.0	7.0	83.0	-70.0	18.4	-86.4	98475.7	529.7	0.04446789547801018	3.5265499353408813	0.0	0.0	6713.1	-176.5	-98875.6	734.4	-1240.999560546875	17.636236429214478	0.0	2082.0	2047.6	2584.0	182.8	171.8	183.2	188.7	1528508294936.5
2016-03-31 12:29:41.050	0.0	0.25	0.0	0.0	8.0	83.0	-68.0	16.4	-84.8	98481.1	529.4	0.04491845779120922	4.5538335800170895	0.0	0.0	5358.0	-239.4	-99001.3	729.5	-1333.088623046875	35.41083030700683	0.0	2075.2	2045.2	2574.4	187.6	184.5	172.8	182.4	1528853645113.9
2016-03-31 12:29:41.100	0.0	0.25	0.0	0.0	8.0	83.0	-68.8	13.2	-85.2	98476.4	529.2	0.045330680534243585	3.4478952884674072	0.0	0.0	2825.7	-292.7	-99075.3	725.3	-1325.3040283203125	32.39643802642822	0.0	2094.0	2043.6	2578.8	195.5	186.8	169.4	176.3	1528878095257.1
2016-03-31 12:29:41.150	0.0	0.25	0.0	0.0	8.0	83.0	-68.2	6.2	-85.4	98484.4	529.2	0.04526413418352604	2.5726069688796995	0.0	0.0	395.5	-321.8	-99151.1	721.5	-1297.2196166992187	27.057044410705565	0.0	2102.4	2042.8	2585.2	194.3	189.1	168.6	176.2	1528902645449.2
2016-03-31 12:29:41.200	0.0	0.25	0.0	0.0	8.0	83.0	-69.6	1.2	-88.0	98476.4	529.2	0.0453785665333271	1.512375259399414	0.0	0.0	-1718.2	-246.8	-99222.0	716.8	-1251.7415405273437	23.134850883483885	0.0	2091.2	2044.0	2586.8	194.8	189.7	169.7	175.8	1528927195531.7
2016-03-31 12:29:41.250	0.0	0.25	0.0	0.0	8.0	83.0	-71.0	-3.4	-86.2	98489.2	529.3	0.045430847257375714	0.5451312486082316	0.0	0.0	-3606.8	-113.6	-99262.0	713.3	-1212.4438354492188	22.08053846359253	0.0	2092.4	2044.4	2588.4	195.7	189.3	170.8	174.0	1528951845730.3
2016-03-31 12:29:41.300	0.0	0.25	0.0	0.0	8.0	83.0	-72.4	-8.8	-88.8	98484.2	529.5	0.045605793595314026	-0.5524545855820179	0.0	0.0	-5382.0	-57.5	-99304.8	710.3	-1134.3507568359375	-12.710541455447673	0.0	2100.4	2044.8	2591.6	196.6	189.6	169.1	174.2	1528976395925.4
2016-03-31 12:29:41.350	0.0	0.25	0.0	0.0	8.0	83.0	-71.4	-12.6	-86.6	98481.0	529.0	0.045448504760861395	-2.0390817403793333	0.0	0.0	-7042.7	-72.7	-99325.9	709.0	-1044.069024658203	-47.28221130371094	0.0	2096.4	2045.6	2588.4	197.0	189.3	168.3	172.8	1529000746007.8
2016-03-31 12:29:41.400	0.0	0.25	0.0	0.0	8.0	83.0	-70.6	-14.6	-86.6	98477.8	529.0	0.04542778693139553	-3.525178050994873	0.0	0.0	-8535.6	-36.8	-99369.5	710.2	-1027.1838684082031	-56.430289840698244	0.0	2090.4	2044.4	2588.0	195.3	189.9	166.0	172.5	1529025396181.8
2016-03-31 12:29:41.450	0.0	0.25	0.0	0.0	8.0	83.0	-72.4	-18.8	-87.2	98477.6	529.0	0.04532280787825584	-4.972466611862183	0.0	0.0	-9772.4	69.8	-99411.7	710.2	-944.0519714355469	-56.34928588867187	0.0	2094.8	2047.6	2586.0	194.4	189.8	166.3	171.8	1529049846264.2
2016-03-31 12:29:41.500	0.0	0.25	0.0	0.0	8.0	83.0	-71.8	-22.2	-89.0	98490.4	529.0	0.04530057720839977	-6.434464359283448	0.0	0.0	-10633.6	185.6	-99470.3	711.8	-871.5801147460937	-63.47373924255371	0.0	2094.0	2048.4	2583.2	192.7	189.6	164.7	172.6	1529074596551.1
2016-03-31 12:29:41.550	0.0	0.25	0.0	0.0	8.0	82.1	-71.6	-24.8	-86.4	98482.3	529.2	0.04531475193798542	-7.718770551681518	0.0	0.0	-11249.1	176.5	-99548.8	715.7	-742.7213012695313	-56.03985786437988	0.0	2085.2	2046.8	2575.6	191.7	189.1	162.4	172.8	1529098946673.1
2016-03-31 12:29:41.600	0.0	0.25	0.0	0.0	8.0	82.0	-71.8	-28.6	-88.2	98482.6	529.0	0.04534177482128143	-9.002090549468994	0.0	0.0	-11580.4	250.3	-99568.9	717.9	-683.0109619140625	-48.037903213500975	0.0	2084.4	2039.6	2572.8	196.4	187.9	162.7	167.7	1529123596795.0
2016-03-31 12:29:41.650	0.0	0.25	0.0	0.0	8.0	82.0	-72.4	-26.8	-85.2	98480.9	529.0	0.04548643678426743	-10.343262100219727	0.0	0.0	-11471.0	384.3	-99576.0	721.2	-631.7162902832031	-27.878467178344728	0.0	2087.6	2046.0	2574.0	192.8	189.3	162.1	168.7	1529148046901.9
2016-03-31 12:29:41.700	0.0	0.25	0.0	0.0	8.0	82.0	-75.8	-23.8	-86.6	98479.3	529.0	0.045620685815811156	-11.344369411468506	0.0	0.0	-10767.5	481.9	-99598.5	723.6	-573.0540954589844	-28.751720809936522	0.0	2079.6	2049.2	2573.6	191.5	186.6	163.9	170.3	1529172697118.5
2016-03-31 12:29:41.750	0.0	0.25	0.0	0.0	8.0	82.0	-71.6	-24.4	-85.2	98485.8	529.0	0.045688246563076976	-12.10639238357544	0.0	0.0	-9581.3	653.7	-99660.7	726.1	-508.93211364746094	-11.733881783485412	0.0	2071.2	2042.4	2570.4	185.7	188.3	163.6	174.1	1529197047219.3
2016-03-31 12:29:41.800	0.0	0.25	0.0	0.0	8.0	82.0	-73.2	-19.6	-85.2	98485.5	529.0	0.0507926270365715	-1.0646003723144535	0.0	0.0	-8090.6	748.1	-99683.6	728.3	-446.8165557861328	20.760165977478028	0.0	2069.6	2041.2	2567.6	186.9	184.0	167.0	173.9	1529221697384.1
2016-03-31 12:29:41.850	0.0	0.25	0.0	0.0	8.0	82.0	-72.4	-16.4	-87.2	98480.2	529.0	0.05733533762395382	19.594133567810058	0.0	0.0	-6520.3	737.0	-99648.3	730.2	-398.181201171875	29.653863525390626	0.0	2070.4	2046.8	2565.2	188.0	181.5	169.8	172.7	1529246147493.9
2016-03-31 12:29:41.900	0.0	0.25	0.0	0.0	8.0	82.0	-72.4	-16.0	-86.8	98485.3	529.0	0.05772740803658962	19.43797073364258	0.0	0.0	-5048.4	753.6	-99614.6	732.0	-336.7652069091797	28.691524314880372	0.0	2066.4	2048.8	2567.2	186.3	182.5	169.3	173.7	1529270797759.4
2016-03-31 12:29:41.950	0.0	0.25	0.0	0.0	8.0	82.0	-74.2	-12.6	-86.2	98483.5	529.0	0.058084329962730406	18.93806743621826	0.0	0.0	-3609.8	817.0	-99597.6	732.1	-290.76165771484375	31.475617599487304	0.0	2062.0	2045.6	2565.6	185.0	182.0	173.1	174.2	1529295147817.4
2016-03-31 12:29:42.000	0.0	0.25	0.0	0.0	8.0	82.0	-72.8	-10.4	-87.2	98485.1	529.0	0.05852328687906265	18.421259689331055	0.0	0.0	-2220.1	855.7	-99519.8	733.6	-275.51869506835936	51.8640853881836	0.0	2056.0	2044.0	2567.6	185.7	178.7	175.6	174.0	1529587197948.8
2016-03-31 12:29:42.050	0.0	0.25	0.0	0.0	8.0	82.0	-74.4	-3.6	-85.6	98482.2	529.0	0.058717329427599906	18.32882442474365	0.0	0.0	-1035.2	808.2	-99445.2	735.3	-256.29565277099607	59.12167816162109	0.0	2055.6	2041.2	2565.2	186.1	176.4	176.6	173.9	1529879048141.0
2016-03-31 12:29:42.100	0.0	0.25	0.0	0.0	8.0	82.0	-72.0	-5.6	-88.8	98480.0	529.0	0.059062425047159195	18.110346031188964	0.0	0.0	-37.9	653.7	-99408.4	735.9	-233.51316528320314	73.54386901855469	0.0	2057.6	2046.0	2564.4	183.0	176.6	176.1	178.4	1529903598266.1
2016-03-31 12:29:42.150	0.0	0.25	0.0	0.0	5.5	82.0	-72.8	-4.4	-86.8	98481.0	529.0	0.05944512709975243	18.108553886413574	0.0	0.0	730.8	507.9	-99398.9	734.4	-223.18081970214843	88.72637023925782	0.0	2054.4	2047.2	2563.2	184.6	176.1	177.0	178.6	1529928148443.0
2016-03-31 12:29:42.200	0.0	0.25	0.0	0.0	3.0	82.0	-72.8	-2.0	-87.2	98482.8	529.0	0.05976461544632912	18.074074935913085	0.0	0.0	1275.5	373.1	-99339.1	733.8	-216.3469253540039	97.5355339050293	0.0	2059.2	2050.8	2566.8	191.1	179.5	173.9	173.5	1529952598598.8
2016-03-31 12:29:42.250	0.0	0.25	0.0	0.0	3.0	82.0	-70.8	0.0	-85.6	98484.3	529.0	0.059764111042022706	17.949874305725096	0.0	0.0	2148.6	234.5	-99330.7	732.3	-190.2373031616211	93.05035858154297	0.0	2062.0	2048.8	2568.8	188.1	182.5	171.1	178.0	1529977248708.5
2016-03-31 12:29:42.300	0.0	0.25	0.0	0.0	3.0	82.0	-72.4	4.8	-87.2	98485.1	529.0	0.060135632380843164	13.703019523620606	0.0	0.0	3558.3	157.3	-99382.4	732.9	-198.2002380371094	86.69028854370117	0.0	2060.0	2044.0	2572.0	187.6	180.1	174.5	177.3	1530001598879.5
2016-03-31 12:29:42.350	0.0	0.25	0.0	0.0	3.0	82.0	-71.55555555555556	5.555555555555555	-85.77777777777777	98482.77777777778	529.0	0.06167987113197645	11.23173967997233	0.0	0.0	5110.666666666667	110.55555555555556	-99359.88888888889	732.3333333333334	-220.97821044921875	95.2929441663954	0.0	2051.5555555555557	2052.4444444444443	2563.5555555555557	187.33333333333334	177.77777777777777	177.0	180.11111111111111	1530025013230.5557
2016-03-31 12:29:42.400	0.0	0.25	0.0	0.0	3.0	82.0	-70.36363636363636	11.272727272727273	-88.54545454545455	98478.09090909091	529.0	0.06286889822645621	12.03851318359375	0.0	0.0	6684.272727272727	-15.272727272727273	-99320.18181818182	732.0	-270.6250291304155	102.50216189297763	0.0	2061.818181818182	2039.6363636363637	2571.6363636363635	188.45454545454547	176.8181818181818	177.8181818181818	181.27272727272728	1530049487520.6365
2016-03-31 12:29:42.450	0.0	0.25	0.0	0.0	3.0	82.0	-69.2	14.0	-88.0	98483.7	529.0	0.06269363276660442	12.222583293914795	0.0	0.0	8093.4	-181.2	-99355.5	732.8	-326.1356506347656	94.9235626220703	0.0	2054.0	2053.6	2571.6	186.2	178.4	177.0	183.7	1530075349346.5
2016-03-31 12:29:42.500	0.0	0.25	0.0	0.0	3.0	82.0	-69.55555555555556	14.88888888888889	-86.66666666666667	98485.11111111111	529.0	0.06324362837606007	11.354319254557291	0.0	0.0	9030.0	-217.55555555555554	-99357.33333333333	734.6666666666666	-370.65049913194446	93.45247650146484	0.0	2058.222222222222	2044.4444444444443	2572.0	187.88888888888889	177.11111111111111	178.0	181.77777777777777	1530098608075.889
2016-03-31 12:29:42.550	0.0	0.25	0.0	0.0	3.0	82.0	-69.7	20.7	-86.1	98485.0	529.0	0.06462309807538986	13.19957218170166	0.0	0.0	9743.2	-240.9	-99336.9	736.7	-449.41656188964845	95.45108795166016	0.0	2058.4	2050.0	2572.0	188.5	177.4	177.6	181.2	1530121944613.1
2016-03-31 12:29:42.600	0.0	0.25	0.0	0.0	3.0	82.0	-68.8	19.8	-85.2	98476.5	529.0	0.06431936621665954	13.83398733139038	0.0	0.0	10222.0	-353.5	-99371.5	736.8	-528.3711364746093	81.37309799194335	0.0	2061.6	2048.0	2564.8	187.8	179.5	175.7	184.0	1530146494720.1
2016-03-31 12:29:42.650	0.0	0.25	0.0	0.0	3.0	82.0	-71.6	21.4	-85.2	98485.3	529.0	0.06554806083440781	14.731378173828125	0.0	0.0	10428.6	-366.5	-99371.2	736.3	-609.3568359375	75.33739547729492	0.0	2065.2	2046.8	2574.8	192.0	180.7	175.6	181.1	1530171044961.1
2016-03-31 12:29:42.700	0.0	0.25	0.0	0.0	3.0	82.0	-68.3	21.1	-86.3	98483.8	529.0	0.06528021171689033	14.107447814941406	0.0	0.0	10423.9	-449.4	-99384.1	735.1	-668.1114685058594	67.02715187072754	0.0	2067.6	2048.4	2572.0	191.7	182.3	175.4	182.1	1530195495046.6
2016-03-31 12:29:42.750	0.0	0.25	0.0	0.0	3.0	82.0	-69.83333333333333	22.166666666666668	-83.5	98483.0	529.0	0.06584661329785983	14.40068531036377	0.0	0.0	10309.166666666666	-467.6666666666667	-99397.66666666667	734.5	-740.8529256184896	64.7553316752116	0.0	2060.6666666666665	2044.0	2578.6666666666665	193.66666666666666	183.5	173.5	181.0	1530216738514.6667
2016-03-31 12:29:42.800	0.0	0.25	0.0	0.0	3.0	82.0	-70.7	20.3	-84.3	98483.0	529.0	0.06599208638072014	14.613456058502198	0.0	0.0	10079.4	-455.1	-99378.5	731.0	-806.2576171875	54.14532890319824	0.0	2074.4	2046.0	2578.8	196.9	182.8	177.3	177.8	1530244695330.4
2016-03-31 12:29:42.850	0.0	0.25	0.0	0.0	3.0	82.0	-70.3	23.7	-85.3	98486.9	529.0	0.06604758501052857	14.82654390335083	0.0	0.0	9859.9	-404.8	-99328.0	729.1	-867.0141052246094	46.28536262512207	0.0	2082.8	2048.4	2586.4	198.5	184.1	174.8	178.2	1530269145531.5
2016-03-31 12:29:42.900	0.0	0.25	0.0	0.0	3.0	82.0	-67.4	21.8	-83.4	98482.5	529.0	0.06604114919900894	14.952773952484131	0.0	0.0	9475.0	-525.7	-99343.4	726.3	-918.57978515625	54.83876419067383	0.0	2079.2	2057.2	2589.2	197.2	189.1	169.8	180.5	1530293695614.1
2016-03-31 12:29:42.950	0.0	0.25	0.0	0.0	3.0	82.0	-69.3	22.9	-84.1	98482.1	529.0	0.06623307019472122	15.05359706878662	0.0	0.0	9089.2	-603.8	-99414.9	724.8	-971.3029968261719	19.055839824676514	0.0	2082.0	2048.0	2588.8	197.9	189.0	169.2	180.2	1530318245833.8
2016-03-31 12:29:43.000	0.0	0.25	0.0	0.0	3.0	82.0	-69.4	22.8	-87.6	98483.7	529.0	0.06660275831818581	15.114496517181397	0.0	0.0	8856.7	-657.0	-99468.2	721.5	-1001.4388366699219	20.532182121276854	0.0	2085.6	2038.4	2588.0	197.8	190.6	168.6	181.0	1530556795925.6
2016-03-31 12:29:43.050	0.0	0.25	0.0	0.0	3.0	82.0	-69.2	23.4	-86.4	98487.5	529.0	0.06677102744579315	14.861950206756593	0.0	0.0	8679.6	-670.7	-99543.9	721.0	-1049.7669616699218	22.728795433044432	0.0	2082.4	2048.8	2588.4	197.8	190.7	168.1	179.7	1530902046029.2
2016-03-31 12:29:43.100	0.0	0.25	0.0	0.0	3.0	82.0	-69.6	22.2	-83.6	98489.2	529.0	0.06707779839634895	14.586997699737548	0.0	0.0	8473.5	-613.4	-99527.7	721.0	-1091.89306640625	23.051183891296386	0.0	2088.4	2048.0	2590.0	199.8	189.4	169.1	176.2	1530926596212.2
2016-03-31 12:29:43.150	0.0	0.25	0.0	0.0	3.0	82.0	-70.8	24.2	-87.2	98479.8	529.0	0.0671078845858574	14.357977390289307	0.0	0.0	8249.0	-535.3	-99565.5	721.3	-1112.8620361328126	35.719811248779294	0.0	2094.8	2040.4	2594.8	198.6	191.4	166.9	176.0	1530951146370.8
2016-03-31 12:29:43.200	0.0	0.25	0.0	0.0	3.0	82.0	-70.3	23.9	-87.1	98484.5	529.0	0.06682210862636566	13.968462276458741	0.0	0.0	8095.8	-183.3	-99604.9	722.2	-1146.188720703125	19.765104866027833	0.0	2094.4	2048.8	2595.6	195.0	193.6	168.2	174.2	1530975696511.3
2016-03-31 12:29:43.250	0.0	0.25	0.0	0.0	3.0	82.0	-71.7	25.5	-85.9	98487.7	529.0	0.06671870797872544	13.46701488494873	0.0	0.0	8164.8	106.0	-99661.2	725.9	-1208.89453125	22.962568283081055	0.0	2100.8	2048.8	2587.6	192.5	192.3	167.5	174.9	1531000146618.2
2016-03-31 12:29:43.300	0.0	0.25	0.0	0.0	3.0	82.0	-72.9	25.3	-85.7	98484.8	529.0	0.07017511278390884	18.411116695404054	0.0	0.0	8413.9	387.4	-99702.9	732.9	-1318.0334716796874	19.309020137786867	0.0	2105.2	2038.0	2580.8	189.6	189.7	167.9	173.4	1531024896841.0
2016-03-31 12:29:43.350	0.0	0.25	0.0	0.0	3.0	82.0	-72.4	23.4	-84.4	98474.4	529.0	0.0721791535615921	20.46917552947998	0.0	0.0	8672.2	534.7	-99772.2	738.1	-1309.4294067382812	19.081425666809082	0.0	2096.0	2040.0	2572.8	188.4	189.9	166.2	173.5	1531049346956.9
2016-03-31 12:29:43.400	0.0	0.0	0.0	0.0	7.0	82.0	-74.6	24.0	-83.2	98483.3	529.0	0.07299986258149146	20.443096160888672	0.0	0.0	8758.9	900.1	-99762.6	742.8	-1371.1400268554687	2.9115732192993162	0.0	2090.4	2048.4	2570.8	177.4	175.5	178.7	178.9	1531073797081.9
2016-03-31 12:29:43.450	0.0	-0.25	0.0	0.0	8.0	82.0	-75.0	25.0	-85.0	98484.9	529.0	0.07423568442463875	20.22370147705078	0.0	0.0	7677.1	1364.7	-99787.8	747.5	-1426.177490234375	8.01569893360138	0.0	2092.0	2046.0	2558.8	182.1	181.7	171.4	171.5	1531098247277.3
2016-03-31 12:29:43.500	0.0	-0.25	0.0	0.0	8.0	82.0	-76.0	20.2	-86.8	98484.4	529.0	0.07469043135643005	19.249812126159668	0.0	0.0	5732.0	1873.5	-99870.1	752.6	-1428.9818115234375	23.750911140441893	0.0	2101.2	2039.6	2553.2	181.3	186.8	167.3	170.0	1531122897460.5
2016-03-31 12:29:43.550	0.0	-0.25	0.0	0.0	8.0	82.0	-77.1	15.7	-86.5	98484.0	529.0	0.0753225788474083	18.51565761566162	0.0	0.0	3694.0	2212.4	-99883.5	756.7	-1416.4195190429687	43.748953628540036	0.0	2107.2	2037.2	2557.2	187.1	181.9	170.8	164.4	1531147447591.5
2016-03-31 12:29:43.600	0.0	-0.25	0.0	0.0	8.0	82.0	-79.7	11.9	-87.1	98482.0	529.0	0.07561660632491111	17.82527599334717	0.0	0.0	1802.8	2387.1	-99849.0	759.6	-1389.1995361328125	64.51396713256835	0.0	2102.0	2037.2	2560.4	188.2	180.9	171.4	164.7	1531171897661.9
2016-03-31 12:29:43.650	0.0	-0.25	0.0	0.0	8.0	82.0	-80.5	6.7	-87.7	98479.5	529.0	0.07574179098010063	17.189251708984376	0.0	0.0	-387.1	2209.3	-99837.8	763.9	-1347.1235473632812	82.90322875976562	0.0	2101.6	2052.8	2569.2	190.4	183.8	165.7	162.9	1531196547930.3
2016-03-31 12:29:43.700	0.0	-0.25	0.0	0.0	8.0	82.0	-76.9	1.9	-88.7	98479.0	529.0	0.07533350884914398	16.27410545349121	0.0	0.0	-2805.6	2224.3	-99890.5	766.4	-1286.0853637695313	96.9188446044922	0.0	2104.0	2052.8	2573.6	190.1	187.8	164.7	161.0	1531220998015.9
2016-03-31 12:29:43.750	0.0	-0.25	0.0	0.0	8.0	82.0	-77.5	-5.5	-86.9	98478.0	529.0	0.07525861039757728	15.548794364929199	0.0	0.0	-5069.3	2040.2	-99879.6	768.8	-1210.2573120117188	112.6162498474121	0.0	2105.2	2045.6	2577.6	193.3	186.7	163.4	159.8	1531245648174.6
2016-03-31 12:29:43.800	0.0	-0.25	0.0	0.0	8.0	82.0	-80.0	-10.2	-89.4	98486.5	529.0	0.07493653446435929	14.833889293670655	0.0	0.0	-7211.9	1662.8	-99789.1	771.0	-1118.2872314453125	125.99170532226563	0.0	2104.4	2041.6	2582.0	198.8	183.9	165.3	155.0	1531270098269.1
2016-03-31 12:29:43.850	0.0	-0.25	0.0	0.0	8.0	82.0	-80.0	-14.4	-90.0	98482.7	529.0	0.07460439354181289	13.945363426208496	0.0	0.0	-9143.4	1329.6	-99640.6	773.7	-1089.5143676757812	145.83824615478517	0.0	2097.6	2052.0	2582.8	200.2	184.0	164.5	153.4	1531294648476.7
2016-03-31 12:29:43.900	0.0	-0.25	0.0	0.0	8.0	82.0	-76.7	-19.1	-89.5	98479.8	529.0	0.07428368031978608	13.153264904022217	0.0	0.0	-10675.8	803.7	-99538.0	777.1	-1082.3476440429688	176.4915786743164	0.0	2102.4	2056.0	2579.6	198.6	184.1	160.8	156.6	1531319198574.4
2016-03-31 12:29:43.950	0.0	-0.25	0.0	0.0	8.0	82.0	-77.8	-24.4	-92.2	98487.6	529.0	0.07392668426036834	12.386693477630615	0.0	0.0	-11792.7	272.9	-99467.5	779.2	-962.8962280273438	222.0038070678711	0.0	2104.0	2054.8	2578.8	199.7	183.5	159.3	157.3	1531343648821.5
2016-03-31 12:29:44.000	0.0	-0.25	0.0	0.0	8.0	82.0	-75.3	-26.3	-94.3	98479.5	529.0	0.07344917729496955	11.728145122528076	0.0	0.0	-12529.7	-360.7	-99354.7	783.3	-805.9101013183594	236.44133758544922	0.0	2093.6	2061.6	2580.4	201.8	181.2	158.2	156.0	1531635598879.5
2016-03-31 12:29:44.050	0.0	-0.25	0.0	0.0	8.0	82.0	-73.0	-26.555555555555557	-95.88888888888889	98484.44444444444	529.0	0.07293472687403361	11.196154064602322	0.0	0.0	-12537.444444444445	-1221.6666666666667	-99212.0	786.3333333333334	-617.3876546223959	282.1572909884983	0.0	2094.6666666666665	2050.6666666666665	2571.5555555555557	204.0	177.77777777777777	159.88888888888889	155.11111111111111	1531927715985.889
2016-03-31 12:29:44.100	0.0	-0.25	0.0	0.0	8.0	82.0	-72.55555555555556	-25.0	-96.77777777777777	98471.33333333333	529.0	0.07258594781160355	10.678143077426487	0.0	0.0	-11709.111111111111	-2119.3333333333335	-99166.22222222222	790.0	-517.1464640299479	268.230224609375	0.0	2084.4444444444443	2053.777777777778	2572.8888888888887	198.66666666666666	175.66666666666666	158.0	162.77777777777777	1531950763349.2222
2016-03-31 12:29:44.150	0.0	-0.25	0.0	0.0	8.0	82.0	-70.63636363636364	-25.545454545454547	-94.0909090909091	98479.63636363637	529.0	0.07229409299113533	10.244237466291947	0.0	0.0	-10389.636363636364	-3011.0	-99174.27272727272	793.9090909090909	-441.4992759011009	223.73848377574575	0.0	2079.2727272727275	2054.5454545454545	2565.818181818182	197.72727272727272	173.0909090909091	158.0	165.1818181818182	1531975419682.6365
2016-03-31 12:29:44.200	0.0	-0.25	0.0	0.0	8.0	82.0	-66.77777777777777	-21.0	-95.44444444444444	98485.88888888889	529.0	0.07201923926671346	9.811095979478624	0.0	0.0	-8913.555555555555	-3691.1111111111113	-99236.66666666667	797.0	-368.3054606119792	191.16484578450522	0.0	2080.0	2054.6666666666665	2553.777777777778	195.44444444444446	173.44444444444446	157.0	167.33333333333334	1531999863636.889
2016-03-31 12:29:44.250	0.0	-0.25	0.0	0.0	8.0	82.0	-66.8	-19.6	-96.0	98481.3	529.0	0.07179077938199044	9.416633415222169	0.0	0.0	-7425.7	-3854.0	-99312.3	798.8	-302.03529663085936	142.50136947631836	0.0	2077.2	2049.6	2558.0	192.5	173.9	160.2	166.8	1532023144631.6
2016-03-31 12:29:44.300	0.0	-0.25	0.0	0.0	8.0	82.0	-67.0	-14.6	-99.4	98486.0	529.0	0.07159985303878784	9.074626159667968	0.0	0.0	-5810.9	-3722.8	-99388.4	801.5	-247.2796615600586	117.14551086425782	0.0	2074.0	2049.6	2557.2	190.3	174.0	160.6	168.1	1532047794787.1
2016-03-31 12:29:44.350	0.0	-0.25	0.0	0.0	8.0	82.0	-66.0	-10.4	-97.6	98479.8	529.0	0.0735614351928234	6.766264867782593	0.0	0.0	-4263.4	-3334.2	-99455.8	804.6	-220.12749481201172	60.430183792114256	0.0	2067.6	2052.0	2555.6	187.7	174.2	161.8	168.0	1532072344973.1
2016-03-31 12:29:44.400	0.0	-0.25	0.0	0.0	4.4	82.0	-65.8	-7.8	-99.8	98479.4	529.0	0.07315147742629051	2.5357804775238035	0.0	0.0	-2850.9	-2762.0	-99651.5	804.3	-165.79216918945312	17.85117588043213	0.0	2063.6	2051.2	2556.4	179.4	177.0	160.2	179.7	1532096795067.8
2016-03-31 12:29:44.450	0.0	-0.25	0.0	0.0	4.0	82.0	-67.4	-5.4	-97.8	98477.0	529.0	0.07139746248722076	0.3642964169383049	0.0	0.0	-1809.0	-2024.8	-99694.5	806.6	-119.19552001953124	-14.898203611373901	0.0	2061.6	2047.6	2558.4	183.2	173.0	164.8	172.1	1532121345223.6
2016-03-31 12:29:44.500	0.0	-0.25	0.0	0.0	4.0	82.0	-68.4	-3.6	-98.4	98481.1	529.0	0.0711015909910202	-2.231548523902893	0.0	0.0	-1046.3	-1282.8	-99770.1	804.8	-83.28094635009765	-22.00343761444092	0.0	2064.0	2043.2	2554.4	179.6	178.4	162.6	176.7	1532145795388.3
2016-03-31 12:29:44.550	0.0	-0.25	0.0	0.0	4.0	82.0	-73.0	-2.6	-95.4	98485.1	529.0	0.07004950866103173	-5.151086020469665	0.0	0.0	-365.0	-701.0	-99829.2	802.0	-43.8430139541626	-32.36928291320801	0.0	2065.2	2040.4	2560.8	181.6	177.3	166.0	175.6	1532170345550.1
2016-03-31 12:29:44.600	0.0	-0.25	0.0	0.0	4.0	82.0	-74.8	2.8	-96.0	98483.3	529.0	0.07072648927569389	-7.68089451789856	0.0	0.0	315.4	-187.1	-99829.4	796.7	-15.177642333507539	-32.108602333068845	0.0	2061.2	2040.4	2561.2	181.9	177.9	169.8	176.5	1532194995702.8
2016-03-31 12:29:44.650	0.0	-0.25	0.0	0.0	4.0	82.0	-73.2	1.2	-95.6	98483.4	529.0	0.07113005071878434	-9.904844760894775	0.0	0.0	1033.1	146.0	-99846.0	788.1	5.125776588916779	-21.015383338928224	0.0	2058.8	2042.4	2569.6	181.9	179.6	171.8	180.7	1532219545830.8
2016-03-31 12:29:44.700	0.0	-0.25	0.0	0.0	4.0	82.0	-74.0	3.2	-95.6	98473.2	529.0	0.07015490829944611	-12.237103080749511	0.0	0.0	1688.3	339.5	-99861.0	780.7	18.071269607543947	-24.521519088745116	0.0	2056.8	2041.6	2575.6	182.5	179.7	173.8	182.6	1532244096010.8
2016-03-31 12:29:44.750	0.0	-0.25	0.0	0.0	4.0	82.0	-73.8	4.6	-95.0	98484.0	529.0	0.0709161713719368	-14.074201679229736	0.0	0.0	2267.0	474.3	-99855.3	772.9	20.796964836120605	-21.575480651855468	0.0	2057.6	2044.0	2579.6	183.2	179.1	176.0	183.9	1532268646221.3
2016-03-31 12:29:44.800	0.0	-0.25	0.0	0.0	4.0	82.0	-75.2	4.0	-94.8	98487.2	529.0	0.07001395598053932	-16.65905866622925	0.0	0.0	2670.7	474.0	-99897.7	765.7	23.86940517425537	-29.63117923736572	0.0	2055.6	2042.8	2580.0	181.9	180.6	174.8	187.4	1532293196392.3
2016-03-31 12:29:44.850	0.0	-0.25	0.0	0.0	4.0	82.0	-75.6	5.2	-94.4	98478.2	529.0	0.06920461356639862	-18.53476791381836	0.0	0.0	2961.6	598.8	-99933.0	761.4	23.34394989013672	-44.614478302001956	0.0	2059.2	2044.0	2576.0	182.0	179.8	175.8	185.8	1532316443859.4
2016-03-31 12:29:44.900	0.0	-0.25	0.0	0.0	4.0	82.0	-74.6	5.4	-93.4	98477.2	529.0	0.06987364962697029	-21.291445159912108	0.0	0.0	3109.6	718.0	-99959.4	756.9	26.774437522888185	-45.35344886779785	0.0	2058.8	2038.4	2578.4	181.8	180.1	175.6	185.7	1532342096572.5
2016-03-31 12:29:44.950	0.0	-0.25	0.0	0.0	3.6	82.0	-77.4	8.2	-93.8	98482.3	529.0	0.07064324244856834	-22.90598487854004	0.0	0.0	3204.6	919.6	-99974.0	752.9	17.11118984222412	-38.554792976379396	0.0	2059.2	2040.8	2577.2	177.1	179.9	180.7	185.2	1532366646728.0
2016-03-31 12:29:45.000	0.0	-0.25	0.0	0.0	3.0	82.0	-77.4	7.4	-92.6	98480.6	529.0	0.07171782180666923	-23.972440338134767	0.0	0.0	3091.7	790.3	-100070.8	749.4	1.7721177339553833	-23.876825714111327	0.0	2050.8	2041.2	2580.0	170.4	178.8	178.9	194.1	1532605196969.1
2016-03-31 12:29:45.050	0.0	-0.25	0.0	0.0	3.0	82.0	-73.4	5.8	-93.8	98488.8	529.0	0.07203249707818031	-25.125692749023436	0.0	0.0	2127.8	414.2	-100098.4	746.5	-6.505668783187867	-18.072148203849792	0.0	2048.8	2044.0	2578.4	177.2	175.6	180.5	188.0	1532950447017.7
2016-03-31 12:29:45.100	0.0	-0.25	0.0	0.0	3.0	82.0	-74.6	2.2	-95.4	98482.0	528.9	0.07459344118833541	-26.181040382385255	0.0	0.0	466.4	37.2	-100129.1	743.8	-2.1223426058888437	3.7864481657743454	0.0	2051.6	2043.2	2580.8	178.7	179.2	172.1	190.5	1532974997179.6
2016-03-31 12:29:45.150	0.0	-0.25	0.0	0.0	3.0	82.0	-73.0	-2.6	-94.2	98483.0	528.9	0.07427096292376519	-27.88653678894043	0.0	0.0	-1449.4	-225.2	-100207.4	741.6	15.732251405715942	-3.958806648850441	0.0	2061.6	2046.0	2579.6	179.8	182.3	171.3	187.2	1532999447332.1
2016-03-31 12:29:45.200	0.0	-0.25	0.0	0.0	3.0	82.0	-73.11111111111111	-6.444444444444445	-94.22222222222223	98484.22222222222	529.0	0.07570295698112911	-29.741214328342014	0.0	0.0	-3180.4444444444443	-239.33333333333334	-100222.33333333333	739.1111111111111	54.32445780436198	-5.2294850084516735	0.0	2058.6666666666665	2044.4444444444443	2582.222222222222	182.44444444444446	181.44444444444446	173.0	184.77777777777777	1533022972781.2222
2016-03-31 12:29:45.250	0.0	-0.25	0.0	0.0	3.0	82.0	-75.63636363636364	-10.545454545454545	-93.27272727272727	98486.72727272728	528.8181818181819	0.07680642875758084	-31.27994294600053	0.0	0.0	-4617.0	-245.9090909090909	-100180.36363636363	737.0	104.30933518843217	-5.096573829650879	0.0	2063.2727272727275	2041.090909090909	2577.818181818182	183.54545454545453	180.1818181818182	174.9090909090909	184.27272727272728	1533047335998.0908
2016-03-31 12:29:45.300	0.0	-0.25	0.0	0.0	3.0	82.0	-74.0	-12.8	-97.2	98482.5	529.0	0.07790369987487793	-32.84131031036377	0.0	0.0	-5778.3	-207.7	-100177.9	737.6	165.51163787841796	-4.789832401275635	0.0	2054.0	2038.0	2580.4	181.8	181.1	172.9	185.4	1533073197747.2
2016-03-31 12:29:45.350	0.0	-0.25	0.0	0.0	3.0	82.0	-73.6	-14.4	-95.2	98484.8	528.8	0.07908723279833793	-34.15832710266113	0.0	0.0	-6539.9	-136.5	-100182.8	735.5	230.46182556152343	-4.386622571945191	0.0	2050.4	2041.6	2576.8	182.1	180.2	175.8	185.3	1533097747954.9
2016-03-31 12:29:45.400	0.0	-0.25	0.0	0.0	3.0	82.0	-77.6	-16.4	-94.4	98483.1	528.7	0.08076033666729927	-34.991738891601564	0.0	0.0	-7104.5	-96.8	-100109.0	736.8	291.9902648925781	1.456400728225708	0.0	2051.2	2044.8	2581.6	183.8	177.6	176.2	183.9	1533122298131.7
2016-03-31 12:29:45.450	0.0	-0.25	0.0	0.0	3.0	82.0	-77.6	-16.8	-93.2	98480.6	528.8	0.08155923560261727	-36.906592559814456	0.0	0.0	-7429.2	-114.1	-100108.3	737.4	366.5809722900391	-3.973206090927124	0.0	2050.4	2048.8	2573.6	179.5	178.5	175.5	187.3	1533146848223.4
2016-03-31 12:29:45.500	0.0	-0.25	0.0	0.0	3.0	82.0	-75.2	-20.4	-92.8	98485.1	528.7	0.0829447016119957	-38.3341781616211	0.0	0.0	-7521.3	-39.4	-100137.1	736.2	438.0608764648438	-5.096475434303284	0.0	2050.0	2046.0	2572.4	178.4	178.1	176.8	188.8	1533171298357.6
2016-03-31 12:29:45.550	0.0	-0.25	0.0	0.0	3.0	82.0	-75.0	-19.4	-93.8	98483.2	529.0	0.08428583517670632	-39.50997619628906	0.0	0.0	-7439.7	3.8	-100115.2	736.0	502.13018188476565	-2.0567420423030853	0.0	2042.8	2041.2	2574.0	178.8	175.3	179.3	188.8	1533195848513.3
2016-03-31 12:29:45.600	0.0	-0.25	0.0	0.0	3.0	82.0	-74.44444444444444	-19.555555555555557	-93.77777777777777	98477.33333333333	528.3333333333334	0.0840341490175989	-41.19739023844401	0.0	0.0	-7297.555555555556	-33.55555555555556	-100126.33333333333	736.6666666666666	559.3047960069445	-9.973010698954264	0.0	2041.7777777777778	2046.6666666666667	2570.222222222222	175.33333333333334	175.77777777777777	178.44444444444446	191.11111111111111	1533219262810.3333
2016-03-31 12:29:45.650	0.0	-0.25	0.0	0.0	3.0	82.0	-75.27272727272727	-18.727272727272727	-95.81818181818181	98483.72727272728	528.6363636363636	0.08520380949432199	-42.02162031693892	0.0	0.0	-7093.181818181818	102.27272727272727	-100118.90909090909	738.0	611.9747203480114	-13.229300759055398	0.0	2037.4545454545455	2035.6363636363637	2572.3636363636365	175.27272727272728	173.0909090909091	181.63636363636363	188.9090909090909	1533243737204.2727
2016-03-31 12:29:45.700	0.0	-0.25	0.0	0.0	3.0	82.0	-77.0	-21.8	-97.0	98485.6	528.6	0.08695771470665932	-44.22494621276856	0.0	0.0	-6846.9	207.5	-100088.0	738.0	694.1842590332031	-7.162023878097534	0.0	2037.6	2046.0	2569.6	173.2	173.2	181.7	191.6	1533269498952.6
2016-03-31 12:29:45.750	0.0	-0.25	0.0	0.0	3.0	82.0	-74.4	-20.0	-94.4	98485.3	528.9	0.08826823309063911	-48.09305038452148	0.0	0.0	-6590.0	265.7	-100114.3	736.6	795.9524291992187	-20.196479749679565	0.0	2030.4	2044.0	2570.4	172.5	172.9	183.0	192.6	1533293949090.0
2016-03-31 12:29:45.800	0.0	-0.25	0.0	0.0	3.0	82.0	-78.66666666666667	-20.444444444444443	-92.88888888888889	98482.77777777778	528.0	0.08673001329104106	-50.195746951633026	0.0	0.0	-6418.333333333333	234.11111111111111	-100088.44444444444	738.2222222222222	839.6921318901909	-53.642143673366974	0.0	2031.111111111111	2044.4444444444443	2568.0	172.88888888888889	169.66666666666666	183.66666666666666	192.11111111111111	1533317352342.0
2016-03-31 12:29:45.850	0.0	-0.25	0.0	0.0	3.0	82.0	-74.7	-19.9	-92.3	98482.1	528.2	0.08848047778010368	-50.78466377258301	0.0	0.0	-6247.6	190.8	-100079.5	737.0	881.6049438476563	-55.33783531188965	0.0	2024.4	2045.6	2571.2	171.9	170.6	183.6	194.4	1533340744320.1
2016-03-31 12:29:45.900	0.0	-0.25	0.0	0.0	3.0	82.0	-76.3	-19.5	-94.5	98483.3	528.2	0.08856158107519149	-51.57535514831543	0.0	0.0	-6105.9	140.5	-100048.7	735.9	909.1291381835938	-48.33369102478027	0.0	2026.4	2044.8	2572.4	174.0	168.4	186.1	193.2	1533365194567.3
2016-03-31 12:29:45.950	0.0	-0.25	0.0	0.0	3.0	82.0	-73.2	-19.0	-94.0	98484.2	528.0	0.08866383209824562	-52.05533218383789	0.0	0.0	-6086.6	23.9	-100038.9	731.7	945.5571716308593	-33.91801929473877	0.0	2027.6	2044.4	2574.8	173.5	171.7	184.3	196.9	1533389644634.5
2016-03-31 12:29:46.000	0.0	-0.25	0.0	0.0	3.0	82.0	-73.8	-20.6	-92.8	98484.5	528.2	0.0886752501130104	-52.35386772155762	0.0	0.0	-6091.6	11.0	-100035.0	729.1	1068.8171447753907	-7.54257892370224	0.0	2023.2	2044.0	2576.4	174.3	170.4	187.4	195.8	1533628194820.6
2016-03-31 12:29:46.050	0.0	-0.25	0.0	0.0	3.0	82.0	-75.3	-20.7	-95.3	98492.4	528.2	0.09746583104133606	-56.372332382202146	0.0	0.0	-6090.2	-94.5	-99963.9	727.3	1144.580224609375	3.9079060554504395	0.0	2020.8	2044.0	2580.0	176.1	167.6	188.1	196.1	1533973444979.4
2016-03-31 12:29:46.100	0.0	-0.25	0.0	0.0	3.0	82.0	-75.7	-21.5	-92.9	98483.3	528.4	0.10101733580231667	-59.34065895080566	0.0	0.0	-6087.1	-173.1	-99948.6	726.3	1222.2295654296875	-7.297802191972733	0.0	2023.6	2050.0	2580.0	174.4	168.1	188.7	196.4	1533998095110.6
2016-03-31 12:29:46.150	0.0	-0.25	0.0	0.0	3.0	82.0	-71.8	-21.0	-94.0	98484.5	528.0	0.10257265493273734	-61.171443939209	0.0	0.0	-6094.9	-242.9	-99856.8	724.4	1236.2835693359375	-25.212378311157227	0.0	2018.8	2047.6	2578.8	177.4	165.7	190.0	195.7	1534022645232.7
2016-03-31 12:29:46.200	0.0	-0.25	0.0	0.0	3.0	82.0	-72.4	-22.8	-91.8	98482.8	528.0	0.10288349762558938	-62.0972713470459	0.0	0.0	-6203.2	-248.5	-99834.3	721.5	1246.2218627929688	-55.96603889465332	0.0	2014.8	2048.4	2581.2	175.1	169.4	188.8	197.2	1534047095425.0
2016-03-31 12:29:46.250	0.0	-0.25	0.0	0.0	3.0	82.0	-73.5	-23.3	-93.7	98487.3	528.0	0.10301477089524269	-62.64949760437012	0.0	0.0	-6354.8	-251.6	-99788.2	720.2	1259.6920532226563	-54.759308624267575	0.0	2016.4	2048.4	2581.2	177.3	167.4	190.0	196.0	1534071545531.7
2016-03-31 12:29:46.300	0.0	-0.25	0.0	0.0	3.0	82.0	-71.2	-24.6	-93.6	98481.4	528.0	0.10028873533010482	-64.14532432556152	0.0	0.0	-6508.7	-282.1	-99803.2	720.1	1275.9093505859375	-60.71293640136719	0.0	2011.2	2047.6	2581.2	172.8	170.3	186.6	199.5	1534096195788.0
2016-03-31 12:29:46.350	0.0	-0.25	0.0	0.0	3.0	82.0	-74.4	-25.6	-91.8	98482.0	528.0	0.0993384726345539	-64.79167556762695	0.0	0.0	-6656.3	-263.3	-99756.8	721.9	1252.1961791992187	-79.39385681152343	0.0	2010.0	2044.4	2580.8	177.1	165.9	190.1	194.0	1534120645843.0
2016-03-31 12:29:46.400	0.0	-0.125	0.0	0.0	4.666666666666667	82.0	-74.22222222222223	-24.666666666666668	-90.22222222222223	98482.44444444444	528.0	0.09903133081065284	-65.11984168158637	0.0	0.0	-6859.888888888889	-199.77777777777777	-99806.77777777778	723.5555555555555	1292.0304768880208	-88.3155254787869	0.0	2015.111111111111	2049.3333333333335	2575.1111111111113	177.55555555555554	179.77777777777777	176.0	190.11111111111111	1534146286868.2222
2016-03-31 12:29:46.450	0.0	-0.25	0.0	0.0	8.0	82.0	-72.44444444444444	-23.333333333333332	-90.22222222222223	98486.77777777778	528.0	0.09937585145235062	-65.61079406738281	0.0	0.0	-6570.333333333333	54.22222222222222	-99873.77777777778	724.3333333333334	1310.4859076605903	-84.81392076280382	0.0	2025.7777777777778	2042.6666666666667	2572.4444444444443	180.11111111111111	182.22222222222223	173.44444444444446	184.22222222222223	1534168554737.7778
2016-03-31 12:29:46.500	0.0	-0.25	0.0	0.0	8.0	82.0	-74.54545454545455	-20.545454545454547	-90.72727272727273	98485.63636363637	528.0	0.09901516342704947	-65.75714458118786	0.0	0.0	-4494.181818181818	269.1818181818182	-99865.0	725.0909090909091	1309.084228515625	-80.72039170698686	0.0	2010.1818181818182	2045.090909090909	2568.0	173.0909090909091	170.9090909090909	183.9090909090909	191.72727272727272	1534193130159.7273
2016-03-31 12:29:46.550	0.0	-0.25	0.0	0.0	8.0	81.9	-69.3	-11.3	-93.3	98479.7	528.0	0.09782841056585312	-65.56217041015626	0.0	0.0	-1752.2	413.8	-99909.8	726.3	1283.2344482421875	-74.1813232421875	0.0	2001.2	2042.0	2582.4	167.3	171.1	182.6	197.9	1534218946456.3
2016-03-31 12:29:46.600	0.0	-0.25	0.0	0.0	8.0	81.0	-71.6	-5.0	-89.6	98481.8	528.0	0.0966315098106861	-65.24326705932617	0.0	0.0	690.2	447.9	-99933.9	729.1	1238.513623046875	-67.87176742553712	0.0	2003.2	2042.8	2579.2	169.1	166.3	184.7	195.8	1534243496642.6
2016-03-31 12:29:46.650	0.0	-0.25	0.0	0.0	8.0	81.0	-71.77777777777777	-0.8888888888888888	-90.66666666666667	98488.33333333333	528.2222222222222	0.09558059357934529	-64.94559478759766	0.0	0.0	2728.4444444444443	334.55555555555554	-99921.77777777778	732.6666666666666	1176.0364312065972	-62.90895462036133	0.0	1999.5555555555557	2046.2222222222222	2574.6666666666665	169.0	166.55555555555554	181.0	196.22222222222223	1534268648155.5557
2016-03-31 12:29:46.700	0.0	-0.25	0.0	0.0	8.0	81.0	-70.7	1.7	-90.7	98477.6	528.0	0.09451940283179283	-64.7005989074707	0.0	0.0	4446.4	321.3	-99940.4	736.0	1103.770654296875	-59.01587333679199	0.0	2000.8	2047.2	2579.2	169.1	164.9	182.3	194.3	1534292496947.7
2016-03-31 12:29:46.750	0.0	-0.25	0.0	0.0	8.0	81.0	-71.3	6.7	-90.9	98482.8	528.0	0.09336567744612694	-64.43982543945313	0.0	0.0	6118.6	190.4	-99938.5	739.4	1017.1615112304687	-56.55656089782715	0.0	2006.4	2045.6	2578.8	167.9	164.4	180.3	196.5	1534316947042.2
2016-03-31 12:29:46.800	0.0	-0.25	0.0	0.0	8.0	81.0	-70.6	10.4	-89.6	98483.1	528.0	0.09236304387450218	-64.25087890625	0.0	0.0	7672.4	198.6	-99983.9	743.7	919.8212890625	-54.74129524230957	0.0	2008.4	2050.8	2579.6	165.8	163.7	182.5	194.8	1534341597201.1
2016-03-31 12:29:46.850	0.0	-0.25	0.0	0.0	8.0	81.0	-71.1	16.9	-88.5	98476.9	528.0	0.09141163229942321	-63.93747673034668	0.0	0.0	9100.6	232.3	-99964.5	747.0	812.1293518066407	-52.718859100341795	0.0	2006.8	2048.0	2583.6	166.1	161.7	182.2	195.9	1534366047307.8
2016-03-31 12:29:46.900	0.0	-0.25	0.0	0.0	8.0	81.0	-71.1	19.1	-86.9	98486.1	528.0	0.09051361456513404	-63.62050933837891	0.0	0.0	10362.1	301.6	-99883.6	751.0	695.1398254394531	-51.35466041564941	0.0	2015.2	2045.2	2579.6	168.0	156.6	188.5	191.0	1534390697463.6
2016-03-31 12:29:46.950	0.0	-0.25	0.0	0.0	8.0	81.0	-68.8	21.6	-87.6	98476.8	528.0	0.08978428691625595	-63.22851028442383	0.0	0.0	11264.6	301.4	-99839.2	755.4	588.087841796875	-48.27030944824219	0.0	2028.8	2040.0	2571.2	164.2	158.0	184.6	195.0	1534411540203.4
2016-03-31 12:29:47.000	0.0	-0.25	0.0	0.0	8.0	81.0	-67.6	24.0	-87.2	98485.0	528.0	0.08873577415943146	-62.75165977478027	0.0	0.0	11989.0	329.8	-99801.0	760.0	491.0248229980469	-38.83106813430786	0.0	2009.6	2044.4	2568.4	166.1	157.9	185.6	191.5	1534707097787.0
2016-03-31 12:29:47.050	0.0	-0.25	0.0	0.0	8.0	81.0	-70.4	27.0	-87.4	98479.9	528.0	0.08801176026463509	-62.39579887390137	0.0	0.0	12062.1	260.3	-99816.2	762.8	683.4358154296875	8.854935908317566	0.0	2011.6	2046.4	2574.0	159.6	157.4	186.0	198.3	1534998947964.1
2016-03-31 12:29:47.100	0.0	-0.25	0.0	0.0	8.0	81.0	-70.3	24.7	-86.5	98485.3	528.0	0.0873324528336525	-61.95037307739258	0.0	0.0	11318.0	390.5	-99797.6	766.5	720.6723266601563	21.04767427444458	0.0	2020.4	2040.8	2568.8	163.9	159.3	185.5	191.3	1535023398046.3
2016-03-31 12:29:47.150	0.0	-0.25	0.0	0.0	8.0	81.0	-73.0	18.8	-87.6	98485.2	528.0	0.08686954751610756	-61.64048385620117	0.0	0.0	9809.6	382.0	-99847.1	768.8	662.5943725585937	33.88944549560547	0.0	2027.6	2045.6	2560.4	166.0	163.6	181.5	189.7	1535048048229.4
2016-03-31 12:29:47.200	0.0	-0.25	0.0	0.0	8.0	81.0	-69.44444444444444	18.555555555555557	-87.0	98486.77777777778	528.0	0.11529802613788181	-70.92134602864583	0.0	0.0	8203.222222222223	351.6666666666667	-99846.44444444444	766.7777777777778	597.6103515625	45.65280108981662	0.0	2038.2222222222222	2041.3333333333333	2560.8888888888887	168.77777777777777	165.77777777777777	180.55555555555554	191.55555555555554	1535071306989.3333
2016-03-31 12:29:47.250	0.0	-0.25	0.0	0.0	8.0	81.0	-70.9	12.9	-88.1	98484.6	528.0	0.11576903089880944	-71.74467239379882	0.0	0.0	6475.3	229.7	-99895.6	764.1	536.4219787597656	42.719296264648435	0.0	2034.4	2048.0	2566.0	170.8	168.0	181.3	190.8	1535097148525.5
2016-03-31 12:29:47.300	0.0	-0.25	0.0	0.0	8.0	81.0	-70.9	11.9	-88.5	98479.1	528.0	0.11647549122571946	-71.88853530883789	0.0	0.0	4956.0	158.3	-99897.9	758.9	492.4241546630859	40.9199878692627	0.0	2038.8	2048.8	2570.4	173.5	169.1	181.8	192.6	1535121598678.1
2016-03-31 12:29:47.350	0.0	-0.25	0.0	0.0	8.0	81.0	-70.0	8.0	-87.55555555555556	98476.0	528.0	0.11512978209389581	-71.88250732421875	0.0	0.0	3708.777777777778	141.55555555555554	-99885.22222222222	756.3333333333334	442.27035183376734	35.126969231499565	0.0	2042.2222222222222	2042.2222222222222	2570.6666666666665	174.66666666666666	169.33333333333334	184.0	190.11111111111111	1535144902051.7778
2016-03-31 12:29:47.400	0.0	-0.25	0.0	0.0	8.0	81.0	-68.4	4.0	-89.6	98482.3	528.0	0.11395370215177536	-70.9908462524414	0.0	0.0	2615.4	148.5	-99846.5	750.1	392.63335571289065	40.69188613891602	0.0	2039.2	2048.0	2576.4	177.4	170.9	183.9	191.3	1535168294008.9
2016-03-31 12:29:47.450	0.0	-0.25	0.0	0.0	8.0	81.0	-68.0	3.2	-88.8	98482.2	528.0	0.11150680035352707	-70.85166625976562	0.0	0.0	1606.5	161.8	-99878.6	745.4	339.0870727539062	37.09352607727051	0.0	2038.8	2047.2	2577.6	176.1	175.4	182.3	191.7	1535192844182.9
2016-03-31 12:29:47.500	0.0	-0.25	0.0	0.0	8.0	81.0	-67.0	3.0	-91.4	98484.9	528.0	0.11128202304244042	-70.35624923706055	0.0	0.0	754.3	189.2	-99880.2	741.4	309.3014831542969	41.026313400268556	0.0	2040.4	2046.4	2577.2	179.3	174.3	182.8	190.0	1535217294268.3
2016-03-31 12:29:47.550	0.0	-0.25	0.0	0.0	3.5	81.0	-71.6	0.8	-87.6	98480.3	528.0	0.10961587205529214	-70.6726806640625	0.0	0.0	152.1	188.2	-99850.4	737.6	291.7277130126953	31.630490493774413	0.0	2042.8	2049.2	2576.4	175.9	172.2	185.9	193.1	1535241844402.6
2016-03-31 12:29:47.600	0.0	-0.25	0.0	0.0	3.0	81.0	-70.0	2.0	-88.0	98482.2	528.0	0.10751478150486946	-69.7683219909668	0.0	0.0	-530.8	238.3	-99859.6	735.3	261.833073425293	29.675785636901857	0.0	2037.6	2045.6	2580.0	174.1	170.2	187.4	194.4	1535266494610.2
2016-03-31 12:29:47.650	0.0	-0.25	0.0	0.0	3.0	81.0	-70.0	-2.8	-88.0	98478.4	528.0	0.10561451688408852	-69.66481399536133	0.0	0.0	-1739.3	262.8	-99827.2	733.1	242.07209167480468	29.32191104888916	0.0	2036.8	2048.8	2582.8	175.7	170.2	187.8	192.2	1535290844713.9
2016-03-31 12:29:47.700	0.0	-0.25	0.0	0.0	3.0	81.0	-72.0	-7.6	-90.8	98477.3	528.0	0.10353931188583373	-69.60116500854492	0.0	0.0	-3369.6	283.3	-99819.7	732.0	233.55359344482423	21.22648220062256	0.0	2048.0	2044.4	2581.2	177.7	172.9	184.4	190.7	1535315494872.6
2016-03-31 12:29:47.750	0.0	-0.25	0.0	0.0	3.0	81.0	-70.8	-10.8	-88.8	98480.5	528.0	0.10300293415784836	-69.48866958618164	0.0	0.0	-5195.5	272.7	-99786.0	731.0	250.98980560302735	17.788378620147704	0.0	2049.6	2044.0	2578.8	181.3	173.8	184.5	187.1	1535339945006.8
2016-03-31 12:29:47.800	0.0	-0.25	0.0	0.0	3.0	81.0	-70.2	-14.6	-86.2	98478.6	528.0	0.10230480656027793	-69.25293350219727	0.0	0.0	-6884.5	289.2	-99757.8	729.5	282.9319732666016	12.916747856140137	0.0	2047.2	2043.6	2576.8	181.8	176.5	183.0	188.2	1535364495205.1
2016-03-31 12:29:47.850	0.0	-0.25	0.0	0.0	3.0	81.0	-70.2	-19.0	-88.6	98477.3	528.0	0.10074208453297614	-68.79104156494141	0.0	0.0	-8225.6	337.1	-99716.2	727.0	321.9702484130859	12.106791400909424	0.0	2041.6	2044.4	2580.8	182.9	176.7	186.0	187.1	1535389045357.7
2016-03-31 12:29:47.900	0.0	-0.25	0.0	0.0	3.0	81.0	-70.8	-19.2	-89.2	98484.0	528.0	0.09951955378055573	-67.61903839111328	0.0	0.0	-9217.4	414.8	-99679.3	726.4	356.9303771972656	23.74559602737427	0.0	2044.4	2046.4	2586.0	183.6	177.2	185.5	188.4	1535413695498.2
2016-03-31 12:29:47.950	0.0	-0.25	0.0	0.0	3.0	81.0	-72.0	-24.0	-89.2	98479.9	528.0	0.0985170267522335	-68.4772720336914	0.0	0.0	-9828.2	382.6	-99675.2	726.0	421.7376647949219	17.105074214935303	0.0	2042.4	2047.2	2581.2	181.0	176.4	186.3	190.7	1535438245650.8
2016-03-31 12:29:48.000	0.0	-0.25	0.0	0.0	3.0	81.0	-70.8	-26.0	-88.0	98477.7	528.0	0.0973067931830883	-67.70972442626953	0.0	0.0	-10116.1	363.2	-99635.6	727.3	477.6390106201172	18.684220695495604	0.0	2039.6	2046.8	2581.6	182.2	174.0	187.4	189.6	1535676695840.0
2016-03-31 12:29:48.050	0.0	-0.25	0.0	0.0	3.0	81.0	-71.8	-25.4	-86.2	98481.9	528.0	0.09705401360988616	-67.68504104614257	0.0	0.0	-10275.4	334.7	-99611.1	730.3	542.3567932128906	22.74349193572998	0.0	2032.8	2043.6	2576.8	179.3	173.6	186.7	190.4	1536021945904.0
2016-03-31 12:29:48.100	0.0	-0.25	0.0	0.0	3.0	81.0	-71.2	-24.8	-88.4	98483.1	528.0	0.09625865593552589	-67.13790969848633	0.0	0.0	-10292.1	269.5	-99591.4	731.8	596.2916137695313	26.67906246185303	0.0	2033.2	2046.0	2582.0	179.0	172.0	187.0	191.1	1536046396020.0
2016-03-31 12:29:48.150	0.0	-0.25	0.0	0.0	3.0	81.0	-72.4	-24.8	-84.8	98474.6	528.0	0.09485159665346146	-67.27990188598633	0.0	0.0	-10232.6	260.8	-99570.0	734.7	648.2974609375	22.23792839050293	0.0	2039.2	2049.2	2582.4	178.1	170.9	187.5	190.3	1536071046218.4
2016-03-31 12:29:48.200	0.0	-0.25	0.0	0.0	3.0	81.0	-68.6	-28.6	-86.2	98486.4	528.0	0.09391331896185875	-67.06141662597656	0.0	0.0	-10125.8	230.0	-99541.5	737.3	700.0677001953125	24.053546142578124	0.0	2032.4	2048.0	2578.0	177.4	169.7	187.9	190.6	1536095596410.6
2016-03-31 12:29:48.250	0.0	-0.25	0.0	0.0	3.0	81.0	-70.8	-27.6	-88.4	98476.2	528.0	0.09321312382817268	-66.99885940551758	0.0	0.0	-10092.9	156.7	-99472.7	738.2	758.5052124023438	27.69414234161377	0.0	2023.6	2048.4	2576.8	180.4	167.9	189.0	189.2	1536120346560.0
2016-03-31 12:29:48.300	0.0	-0.25	0.0	0.0	3.0	81.0	-71.8	-30.6	-87.8	98490.0	528.0	0.09175645485520363	-67.5394401550293	0.0	0.0	-10065.4	6.3	-99439.3	740.8	808.4274475097657	19.35178565979004	0.0	2024.4	2049.6	2581.6	178.5	168.2	186.3	191.8	1536144596602.9
2016-03-31 12:29:48.350	0.0	-0.25	0.0	0.0	3.0	81.0	-69.2	-27.2	-90.4	98481.9	528.0	0.09303182810544967	-68.52942657470703	0.0	0.0	-9936.1	-108.4	-99465.4	742.2	904.0128173828125	16.569228649139404	0.0	2028.0	2049.2	2574.4	175.9	168.9	186.6	193.6	1536169246853.2
2016-03-31 12:29:48.400	0.0	-0.25	0.0	0.0	3.0	81.0	-70.2	-27.4	-87.0	98484.0	528.0	0.09609990194439888	-69.40413131713868	0.0	0.0	-9834.6	-198.4	-99490.3	742.9	1000.069189453125	22.251128005981446	0.0	2020.4	2049.2	2575.6	176.0	169.7	184.8	195.4	1536193596938.7
2016-03-31 12:29:48.450	0.0	-0.25	0.0	0.0	3.0	81.0	-70.4	-29.2	-88.8	98479.8	528.0	0.09412444606423379	-69.22425384521485	0.0	0.0	-9758.9	-239.2	-99547.8	744.3	1040.0427001953126	19.615360736846924	0.0	2016.4	2047.2	2576.0	175.3	169.5	186.5	194.4	1536218347097.4
2016-03-31 12:29:48.500	0.0	-0.25	0.0	0.0	3.0	81.0	-69.8	-27.4	-88.6	98477.4	528.0	0.0947050228714943	-69.28152618408203	0.0	0.0	-9641.9	-315.8	-99509.2	746.3	1061.3681518554688	51.94217700958252	0.0	2018.4	2045.6	2576.4	176.4	166.9	186.5	194.5	1536242797198.0
2016-03-31 12:29:48.550	0.0	-0.25	0.0	0.0	3.0	81.0	-68.4	-28.4	-86.8	98480.4	528.0	0.09474302381277085	-69.53315887451171	0.0	0.0	-9530.2	-358.4	-99591.8	749.5	1063.4263305664062	63.56579818725586	0.0	2020.0	2047.2	2572.0	171.2	170.0	183.1	197.4	1536267447378.0
2016-03-31 12:29:48.600	0.0	-0.25	0.0	0.0	3.0	81.0	-73.0	-26.2	-87.0	98479.2	528.0	0.0948950856924057	-69.5851951599121	0.0	0.0	-9430.2	-340.8	-99663.4	753.8	1104.6616333007812	57.086462783813474	0.0	2014.4	2046.4	2563.6	171.4	167.7	183.8	195.4	1536291897612.9
2016-03-31 12:29:48.650	0.0	-0.25	0.0	0.0	3.0	81.0	-69.0	-29.0	-86.2	98475.3	528.0	0.09474331960082054	-69.6795051574707	0.0	0.0	-9300.7	-322.8	-99735.8	756.1	1130.894580078125	55.4062141418457	0.0	2011.6	2045.2	2564.4	168.7	168.7	182.5	198.3	1536316447716.9
2016-03-31 12:29:48.700	0.0	-0.25	0.0	0.0	3.0	81.0	-68.0	-27.6	-86.8	98483.1	528.0	0.09449918568134308	-69.74064102172852	0.0	0.0	-9200.3	-243.9	-99797.4	758.1	1189.4584716796876	40.766919898986814	0.0	2010.8	2046.8	2566.0	169.9	168.2	185.0	195.3	1536340897841.9
2016-03-31 12:29:48.750	0.0	-0.25	0.0	0.0	3.0	81.0	-69.0	-27.8	-88.6	98481.9	528.0	0.09456052109599114	-69.65182266235351	0.0	0.0	-9268.2	-64.1	-99820.8	760.6	1272.4668090820312	1.0461758345365524	0.0	2004.8	2045.2	2564.8	169.4	170.0	183.8	194.7	1536365547982.3
2016-03-31 12:29:48.800	0.0	-0.16666666666666666	0.0	0.0	4.0	81.0	-72.0	-29.6	-86.0	98477.7	528.0	0.0943860501050949	-69.49175720214843	0.0	0.0	-9400.6	126.2	-99881.6	761.8	1336.4977661132812	-7.2042289733886715	0.0	2008.4	2042.8	2566.4	174.1	175.0	179.4	189.1	1536389898168.5
2016-03-31 12:29:48.850	0.0	0.25	0.0	0.0	8.0	81.0	-72.0	-26.0	-85.2	98482.5	528.0	0.09490593671798705	-69.54050521850586	0.0	0.0	-9174.4	252.8	-99865.1	762.8	1366.0207275390626	27.604468631744385	0.0	2022.0	2043.2	2565.2	176.4	177.7	172.6	183.1	1536414548278.2
2016-03-31 12:29:48.900	0.0	0.25	0.0	0.0	8.0	81.0	-70.6	-23.0	-89.8	98481.6	528.0	0.09487112164497376	-69.41267395019531	0.0	0.0	-7445.5	440.0	-99932.0	765.2	1388.4134155273437	19.36456916332245	0.0	2014.0	2042.8	2562.0	169.6	171.7	178.6	188.9	1536438998415.7
2016-03-31 12:29:48.950	0.0	0.25	0.0	0.0	8.0	81.0	-72.6	-19.4	-87.4	98479.8	528.0	0.09461993351578712	-69.17177276611328	0.0	0.0	-5191.1	433.3	-99870.7	766.0	1381.22841796875	28.99915771484375	0.0	1999.2	2043.6	2558.4	171.9	165.7	182.3	189.6	1536463748543.8
2016-03-31 12:29:49.000	0.0	0.25	0.0	0.0	8.0	81.0	-70.6	-13.8	-87.0	98478.6	528.0	0.09412925839424133	-68.9415771484375	0.0	0.0	-2942.8	231.9	-99870.9	767.4	1365.5805541992188	31.249398040771485	0.0	1996.0	2042.0	2562.8	168.7	167.8	178.3	194.2	1536755398739.2
2016-03-31 12:29:49.050	0.0	0.25	0.0	0.0	8.0	81.0	-71.0	-9.0	-89.0	98475.0	528.0	0.09377270489931107	-68.7801528930664	0.0	0.0	-1083.0	91.4	-99908.0	769.0	1339.4964111328125	32.7285774230957	0.0	2008.0	2049.6	2572.0	169.0	166.4	178.8	193.8	1537043641283.8
2016-03-31 12:29:49.100	0.0	0.25	0.0	0.0	8.0	81.0	-68.22222222222223	-3.5555555555555554	-89.55555555555556	98479.66666666667	528.0	0.09336180239915848	-68.68947431776259	0.0	0.0	1302.5555555555557	-120.11111111111111	-99914.33333333333	769.5555555555555	1289.848605685764	31.312172995673286	0.0	2003.5555555555557	2048.4444444444443	2573.3333333333335	168.88888888888889	165.33333333333334	178.22222222222223	195.33333333333334	1537070763193.3333
2016-03-31 12:29:49.150	0.0	0.25	0.0	0.0	8.0	81.0	-68.0	0.0	-90.4	98476.2	528.0	0.09297294467687607	-68.67915115356445	0.0	0.0	3295.0	-275.1	-99982.8	770.7	1232.1432861328126	28.442127227783203	0.0	2004.8	2050.4	2576.4	166.0	164.9	180.4	195.7	1537094044118.7
2016-03-31 12:29:49.200	0.0	0.25	0.0	0.0	8.0	81.0	-69.8	7.2	-88.4	98478.3	528.0	0.09251589998602867	-68.49136734008789	0.0	0.0	5450.8	-322.2	-100017.6	773.5	1155.0406005859375	26.0884147644043	0.0	2001.2	2048.0	2585.6	163.6	162.4	179.9	198.4	1537118594298.8
2016-03-31 12:29:49.250	0.0	0.25	0.0	0.0	8.0	81.0	-70.8	12.2	-90.8	98478.3	528.0	0.09194082617759705	-68.33993072509766	0.0	0.0	7577.7	-404.0	-100066.9	776.0	1061.7923583984375	21.804016304016113	0.0	2006.4	2048.4	2585.2	161.9	159.4	183.2	197.7	1537143144518.6
2016-03-31 12:29:49.300	0.0	0.25	0.0	0.0	8.0	81.0	-69.1	14.7	-88.7	98477.1	528.0	0.09147050902247429	-68.11032791137696	0.0	0.0	9403.3	-549.1	-100067.3	780.0	953.221484375	18.05299072265625	0.0	2009.2	2044.0	2577.2	162.3	157.2	181.1	198.5	1537167694603.9
2016-03-31 12:29:49.350	0.0	0.25	0.0	0.0	8.0	81.0	-69.7	18.5	-86.1	98480.1	528.0	0.09104361161589622	-67.9697769165039	0.0	0.0	10662.2	-578.4	-100068.4	782.0	850.9376525878906	-16.502920484542848	0.0	2006.8	2049.2	2570.0	163.5	157.7	185.0	192.7	1537192144707.7
2016-03-31 12:29:49.400	0.0	0.25	0.0	0.0	8.0	81.0	-68.0	23.6	-86.0	98480.1	528.0	0.09072246327996254	-67.79787750244141	0.0	0.0	11320.0	-381.6	-100066.2	785.6	731.4494995117187	-28.63759765625	0.0	2010.4	2042.8	2572.8	160.7	163.0	179.5	193.9	1537216594890.7
2016-03-31 12:29:49.450	0.0	0.25	0.0	0.0	8.0	81.0	-70.6	26.0	-86.8	98477.4	528.0	0.09053098857402801	-67.69113616943359	0.0	0.0	11502.2	-73.9	-100051.7	789.0	735.4846557617187	-61.043578720092775	0.0	2025.6	2045.6	2567.2	159.8	157.7	186.1	192.2	1537241245073.9
2016-03-31 12:29:49.500	0.0	0.25	0.0	0.0	8.0	81.0	-71.6	25.0	-85.0	98481.3	528.0	0.09033267125487328	-67.60549545288086	0.0	0.0	11310.1	67.7	-100050.5	789.5	780.0498474121093	-76.4954833984375	0.0	2019.6	2046.4	2567.2	159.5	158.3	182.7	197.3	1537265795177.7
2016-03-31 12:29:49.550	0.0	0.25	0.0	0.0	8.0	81.0	-70.9	23.3	-86.3	98481.6	528.0	0.09011155739426613	-67.54328994750976	0.0	0.0	10393.3	110.4	-100011.8	790.6	666.6002258300781	-72.04906311035157	0.0	2022.0	2044.4	2560.4	165.9	157.6	182.5	192.2	1537290345345.6
2016-03-31 12:29:49.600	0.0	0.25	0.0	0.0	8.0	81.0	-69.8	20.8	-86.6	98483.4	528.0	0.08992908596992492	-67.475048828125	0.0	0.0	8991.9	70.3	-100045.4	788.6	562.69658203125	-41.71810474395752	0.0	2030.8	2048.4	2562.8	165.3	164.7	177.6	194.8	1537314895516.6
2016-03-31 12:29:49.650	0.0	0.25	0.0	0.0	8.0	81.0	-70.7	19.9	-86.1	98482.8	528.0	0.09079967290163041	-67.88248138427734	0.0	0.0	7371.8	145.1	-100043.7	783.6	476.29002685546874	-29.371516609191893	0.0	2032.4	2044.8	2561.6	169.8	165.7	179.7	193.2	1537339445647.9
2016-03-31 12:29:49.700	0.0	0.25	0.0	0.0	8.0	81.0	-70.4	15.4	-87.4	98482.2	528.0	0.09942134469747543	-72.08331756591797	0.0	0.0	5758.9	120.9	-100091.5	778.0	397.1429443359375	-18.25585870742798	0.0	2032.0	2048.0	2572.4	170.3	169.5	179.0	195.2	1537363995821.7
2016-03-31 12:29:49.750	0.0	0.25	0.0	0.0	8.0	81.0	-68.2	10.4	-87.6	98480.4	528.0	0.09805004671216011	-72.76266403198242	0.0	0.0	4253.5	136.3	-100099.4	771.9	354.2593933105469	-4.085255116224289	0.0	2041.2	2044.4	2577.6	173.3	169.5	180.2	195.1	1537388545931.6
2016-03-31 12:29:49.800	0.0	0.25	0.0	0.0	8.0	81.0	-68.6	8.0	-89.6	98481.6	528.0	0.09523336738348007	-72.68486633300782	0.0	0.0	2880.4	86.4	-100110.5	766.3	297.80555419921876	2.4304444909095766	0.0	2042.0	2050.4	2576.8	173.7	171.3	181.0	194.4	1537412996120.7
2016-03-31 12:29:49.850	0.0	0.25	0.0	0.0	8.0	81.0	-68.9	3.9	-87.1	98482.2	528.0	0.09286234751343728	-71.91068572998047	0.0	0.0	1604.6	115.6	-100064.0	760.5	247.17778472900392	2.917392635345459	0.0	2044.0	2046.0	2572.4	177.7	170.1	183.7	191.4	1537437546285.5
2016-03-31 12:29:49.900	0.0	0.25	0.0	0.0	8.0	81.0	-68.9	4.5	-89.7	98477.7	528.0	0.09115204140543938	-71.31185455322266	0.0	0.0	471.4	118.5	-100023.8	753.0	210.07976379394532	9.548290061950684	0.0	2044.4	2046.8	2575.6	177.6	174.6	182.4	192.6	1537462196483.7
2016-03-31 12:29:49.950	0.0	0.25	0.0	0.0	4.0	81.0	-71.1	0.1	-89.5	98481.3	528.0	0.08950922265648842	-70.90496673583985	0.0	0.0	-400.7	150.1	-100019.6	746.8	186.54086151123047	6.299239754676819	0.0	2052.0	2047.2	2580.8	184.5	181.6	177.1	186.1	1537486646532.6
2016-03-31 12:29:50.000	0.0	0.25	0.0	0.0	4.0	81.0	-69.0	1.6666666666666667	-88.33333333333333	98479.66666666667	528.0	0.08830956204069985	-70.03976525200738	0.0	0.0	-502.6666666666667	200.66666666666666	-99957.77777777778	741.2222222222222	161.3834025065104	10.196486685011122	0.0	2049.777777777778	2038.2222222222222	2583.5555555555557	182.66666666666666	175.22222222222223	184.33333333333334	187.66666666666666	1537688216406.3333
2016-03-31 12:29:50.050	0.0	0.25	0.0	0.0	3.727272727272727	81.0	-69.36363636363636	0.45454545454545453	-88.63636363636364	98481.27272727272	528.0	0.08487820015712218	-69.1781997680664	0.0	0.0	-133.54545454545453	147.0909090909091	-99908.63636363637	736.4545454545455	124.53644353693181	5.458454210649837	0.0	2042.909090909091	2046.909090909091	2585.090909090909	178.63636363636363	173.8181818181818	184.45454545454547	193.45454545454547	1538069226206.818
2016-03-31 12:29:50.100	0.0	0.25	0.0	0.0	3.0	81.0	-72.1	-0.1	-88.9	98480.7	528.0	0.08319034799933434	-68.2563850402832	0.0	0.0	108.6	157.6	-99888.9	734.7	99.34866561889649	-0.9175837263464928	0.0	2042.8	2039.6	2586.4	180.3	174.6	183.1	188.5	1538094996981.5
