time	leftRight	frontBack	up	angular	State	Battery_level	Magnetometer_x	Magnetometer_y	Magnetometer_z	Pressure	Temperature	Wind_speed	Wind_angle	Wind_compensation:pitch	Wind_compensation:roll	Pitch_y	Roll_x	Yaw_z	Altitude	Velocity_x	Velocity_y	Velocity_z	Acceleration_x	Acceleration_y	Acceleration_z	Motor_1_power	Motor_2_power	Motor_3_power	Motor_4_power	time_board	_merge
1970-01-01 00:00:00.000	0.0	-0.25	0.0	0.0	7	83	-76	6	-90	98469	531	0.00537707656621933	-47.9677963256836	0.0	0.0	-1.0	-14.0	-99321.0	721	-25.68644905090332	14.866025924682615	0.0	2004.0	2096.0	2556.0	178	177	176	183	1521058856811	both
1970-01-01 00:00:00.065	0.0	-0.25	0.0	0.0	7	83	-80	0	-94	98475	531	0.005500736646354199	-47.05525207519531	0.0	0.0	78.0	-140.0	-99409.0	722	-22.3361759185791	13.956254005432127	0.0	1996.0	2052.0	2552.0	176	170	185	185	1521090921661	both
1970-01-01 00:00:00.095	0.0	-0.25	0.0	0.0	7	83	-72	2	-100	98489	530	0.005983766168355942	-44.97467422485352	0.0	0.0	-159.0	-346.0	-99391.0	724	-15.992612838745115	24.53118896484375	0.0	1988.0	2076.0	2552.0	179	165	187	182	1521104952087	both
1970-01-01 00:00:00.189	0.0	-0.25	0.0	0.0	7	83	-71	-1	-89	98478	531	0.006394505500793457	-44.26980209350586	0.0	0.0	-2278.0	-905.0	-99446.0	726	-4.626230239868164	20.935237884521484	0.0	2032.0	2044.0	2564.0	179	172	180	184	1521686046813	both
1970-01-01 00:00:00.220	0.0	-0.25	0.0	0.0	7	83	-77	-3	-95	98486	531	0.006463313475251198	-45.45178604125977	0.0	0.0	-3169.0	-970.0	-99406.0	726	9.697206497192383	15.24989128112793	0.0	2100.0	2044.0	2556.0	181	173	181	181	1521701076873	both
1970-01-01 00:00:00.285	0.0	-0.25	0.0	0.0	7	83	-79	-3	-91	98469	531	0.006759619805961847	-41.82766723632813	0.0	0.0	-4850.0	-972.0	-99384.0	727	31.540361404418945	8.557819366455076	0.0	2060.0	2028.0	2560.0	182	174	180	182	1521733142181	both
1970-01-01 00:00:00.316	0.0	-0.25	0.0	0.0	7	83	-75	-11	-95	98495	531	0.006950801704078914	-41.62017059326172	0.0	0.0	-5472.0	-977.0	-99395.0	728	51.22620391845703	7.361525058746338	0.0	2120.0	2052.0	2548.0	181	176	179	183	1521748172485	both
1970-01-01 00:00:00.380	0.0	-0.25	0.0	0.0	7	83	-82	-18	-92	98478	531	0.0072533716447651395	-41.00912094116211	0.0	0.0	-6589.0	-942.0	-99422.0	729	99.80426788330078	1.30102801322937	0.0	2096.0	2044.0	2552.0	180	176	180	184	1521779237426	both
1970-01-01 00:00:00.445	0.0	-0.25	0.0	0.0	7	83	-72	-16	-92	98472	531	0.007717486936599015	-37.59817123413086	0.0	0.0	-7178.0	-932.0	-99411.0	730	150.1459503173828	0.5578958988189697	0.0	2056.0	2036.0	2556.0	180	173	183	182	1521811302642	both
1970-01-01 00:00:00.475	0.0	-0.25	0.0	0.0	7	83	-72	-24	-92	98498	531	0.007932827807962894	-38.04644012451172	0.0	0.0	-7353.0	-900.0	-99456.0	730	178.51443481445312	-0.8334827423095703	0.0	2096.0	2060.0	2552.0	179	177	180	187	1521826332794	both
1970-01-01 00:00:00.540	0.0	-0.25	0.0	0.0	7	83	-78	-16	-88	98475	530	0.008143494836986065	-39.99837493896485	0.0	0.0	-7511.0	-880.0	-99530.0	731	265.98617553710943	-11.315088272094727	0.0	2072.0	2056.0	2552.0	177	175	182	186	1521858397735	both
1970-01-01 00:00:00.636	0.0	-0.25	0.0	0.0	7	83	-77	-15	-91	98489	531	0.00921019446104765	-40.40832901000977	0.0	0.0	-7354.0	-859.0	-99532.0	735	361.6659851074219	-9.907031059265137	0.0	2076.0	2036.0	2552.0	175	171	182	187	1521904493469	both
1970-01-01 00:00:00.700	0.0	-0.25	0.0	0.0	7	83	-74	-18	-92	98466	530	0.009259765967726707	-40.5053939819336	0.0	0.0	-7216.0	-883.0	-99561.0	735	397.3047180175781	-12.399019241333008	0.0	2096.0	2064.0	2568.0	174	171	183	188	1521922528411	both
1970-01-01 00:00:00.731	0.0	-0.25	0.0	0.0	7	83	-75	-17	-91	98498	530	0.00984326284378767	-44.75195693969727	0.0	0.0	-7074.0	-1012.0	-99580.0	731	471.2780151367188	-19.19647789001465	0.0	2004.0	1992.0	2564.0	179	173	186	192	1521951588348	both
1970-01-01 00:00:00.762	0.0	-0.25	0.0	0.0	7	83	-75	-15	-87	98495	530	0.009897163137793541	-44.60987854003906	0.0	0.0	-6961.0	-1066.0	-99604.0	731	494.7029724121094	-23.414337158203125	0.0	1968.0	1972.0	2580.0	177	173	184	194	1521966618865	both
1970-01-01 00:00:00.791	0.0	-0.25	0.0	0.0	7	83	-75	-19	-95	98483	530	0.010010238736867905	-47.25871276855469	0.0	0.0	-6858.0	-1088.0	-99594.0	731	534.99853515625	-34.58951568603516	0.0	1968.0	2000.0	2584.0	178	171	188	190	1521980648803	both
1970-01-01 00:00:00.887	0.0	-0.25	0.0	0.0	7	83	-72	-14	-88	98495	530	0.011077139526605606	-50.81881713867188	0.0	0.0	-6693.0	-1378.0	-99640.0	734	637.1296997070312	-40.87453842163086	0.0	2016.0	2036.0	2560.0	176	171	183	192	1522027743957	both
1970-01-01 00:00:00.952	0.0	-0.25	0.0	0.0	7	83	-79	-25	-93	98486	531	0.011769955977797508	-53.7180061340332	0.0	0.0	-6603.0	-1527.0	-99594.0	735	710.8823852539062	-51.8451042175293	0.0	2052.0	2068.0	2560.0	176	168	183	192	1522059809051	both
1970-01-01 00:00:00.982	0.0	-0.25	0.0	0.0	7	83	-72	-26	-90	98478	531	0.011715725064277649	-56.40869522094727	0.0	0.0	-6554.0	-1610.0	-99624.0	735	739.3159790039062	-61.74835205078125	0.0	2072.0	2096.0	2556.0	174	171	181	193	1522073839141	both
1970-01-01 00:00:01.013	0.0	-0.25	0.0	0.0	7	83	-74	-26	-94	98469	530	0.011999438516795635	-59.59085464477539	0.0	0.0	-6484.0	-1612.0	-99634.0	737	775.0518798828125	-72.92655181884766	0.0	2056.0	2068.0	2564.0	173	167	185	189	1522088869262	both
1970-01-01 00:00:01.073	0.0	-0.25	0.0	0.0	7	83	-70	-16	-94	98513	530	0.012670249678194523	-58.1410026550293	0.0	0.0	-6334.0	-1622.0	-99606.0	733	813.7254638671875	-70.6908950805664	0.0	2048.0	1988.0	2576.0	176	169	186	195	1522117929687	both
1970-01-01 00:00:01.103	0.0	-0.25	0.0	0.0	7	83	-68	-20	-90	98478	530	0.01233505830168724	-59.16822814941406	0.0	0.0	-6244.0	-1648.0	-99613.0	733	825.6553344726562	-74.49994659423828	0.0	2036.0	2028.0	2588.0	176	170	186	195	1522132959777	both
1970-01-01 00:00:01.138	0.0	-0.25	0.0	0.0	7	83	-70	-18	-86	98463	530	0.012477794662117958	-61.4461784362793	0.0	0.0	-6151.0	-1657.0	-99488.0	735	845.2718505859375	-87.87096405029297	0.0	2080.0	1996.0	2564.0	183	159	193	184	1522149994934	both
1970-01-01 00:00:01.239	0.0	-0.25	0.0	0.0	7	83	-77	-21	-87	98478	530	0.013514970429241656	-73.1937484741211	0.0	0.0	-5987.0	-1763.0	-99448.0	734	951.5516967773438	-128.384521484375	0.0	2032.0	2040.0	2580.0	177	167	188	192	1522734095397	both
1970-01-01 00:00:01.273	0.0	-0.25	0.0	0.0	7	83	-66	-16	-94	98480	530	0.01413710694760084	-75.5105972290039	0.0	0.0	-5942.0	-1689.0	-99453.0	734	988.5369262695312	-145.83279418945312	0.0	2036.0	2056.0	2588.0	176	166	189	191	1522751130004	both
1970-01-01 00:00:01.303	0.0	-0.25	0.0	0.0	7	83	-69	-23	-95	98444	530	0.01355825737118721	-79.6249771118164	0.0	0.0	-5859.0	-1599.0	-99450.0	735	992.4443359375	-165.18067932128906	0.0	2088.0	2044.0	2576.0	173	167	188	192	1522766160583	both
1970-01-01 00:00:01.334	0.0	-0.25	0.0	0.0	7	83	-66	-22	-92	98469	530	0.013292048126459122	-80.83322143554688	0.0	0.0	-5797.0	-1506.0	-99456.0	738	1002.7621459960938	-183.6745147705078	0.0	2056.0	2040.0	2584.0	171	165	184	191	1522780190429	both
1970-01-01 00:00:01.429	0.0	-0.25	0.0	0.0	3	83	-70	-18	-92	98478	530	0.015119954943656918	-87.88569641113281	0.0	0.0	-5195.0	-1193.0	-99428.0	739	1074.9844970703123	-199.40267944335938	0.0	1996.0	2028.0	2588.0	167	160	189	191	1522827285583	both
1970-01-01 00:00:01.495	0.0	-0.25	0.0	0.0	3	83	-71	-21	-95	98475	530	0.014110053889453413	-91.80178833007812	0.0	0.0	-5304.0	-1135.0	-99426.0	738	1049.975341796875	-211.4183807373047	0.0	2008.0	2020.0	2564.0	172	164	186	189	1522859350891	both
1970-01-01 00:00:01.589	0.0	-0.25	0.0	0.0	3	83	-70	-28	-92	98489	530	0.014127110131084919	-94.71283721923828	0.0	0.0	-5974.0	-980.0	-99497.0	738	1058.412841796875	-222.16429138183597	0.0	2072.0	2052.0	2552.0	170	167	185	190	1522905445922	both
1970-01-01 00:00:01.620	0.0	-0.25	0.0	0.0	3	83	-71	-23	-93	98486	530	0.01562511920928955	-91.2119369506836	0.0	0.0	-6190.0	-907.0	-99547.0	739	1079.48876953125	-219.1042938232422	0.0	2120.0	2060.0	2548.0	168	171	182	192	1522920475982	both
1970-01-01 00:00:01.684	0.0	-0.25	0.0	0.0	3	83	-75	-23	-89	98453	530	0.014830074273049831	-89.90486145019531	0.0	0.0	-6588.0	-813.0	-99589.0	735	1101.4073486328123	-198.5414581298828	0.0	2052.0	2052.0	2548.0	172	169	186	192	1522952541351	both
1970-01-01 00:00:01.714	0.0	-0.25	0.0	0.0	3	83	-71	-27	-87	98483	530	0.014762818813323975	-89.51045227050781	0.0	0.0	-6638.0	-747.0	-99638.0	734	1114.349609375	-196.23306274414062	0.0	2024.0	2024.0	2560.0	168	171	186	194	1522966571289	both
1970-01-01 00:00:01.745	0.0	-0.25	0.0	0.0	3	83	-69	-25	-87	98456	530	0.014940341003239157	-88.88577270507812	0.0	0.0	-6759.0	-727.0	-99678.0	733	1128.921630859375	-193.48004150390625	0.0	1992.0	2032.0	2564.0	170	172	183	195	1522981601470	both
1970-01-01 00:00:02.772	0.0	-0.25	0.0	0.0	3	83	-69	-1	-83	98478	530	0.030431909486651417	-63.90058898925781	0.0	0.0	2416.0	191.0	-99553.0	694	172.81764221191406	-0.5979787707328796	0.0	2016.0	1976.0	2592.0	183	173	194	191	1524019629455	both
1970-01-01 00:00:02.803	0.0	-0.25	0.0	0.0	3	83	-77	1	-89	98483	530	0.03118185698986053	-64.64879608154297	0.0	0.0	1518.0	131.0	-99485.0	689	149.5054931640625	1.3300325870513916	0.0	2008.0	2024.0	2596.0	183	173	193	195	1524034659881	both
1970-01-01 00:00:02.833	0.0	-0.25	0.0	0.0	3	83	-67	5	-93	98489	530	0.029909620061516762	-60.65414428710938	0.0	0.0	468.0	-9.0	-99483.0	687	114.76144409179688	5.121786594390869	0.0	2024.0	2072.0	2592.0	180	176	189	197	1524048689910	both
1970-01-01 00:00:02.899	0.0	-0.25	0.0	0.0	3	83	-74	-10	-88	98475	530	0.029896875843405724	-60.46359634399414	0.0	0.0	-2326.0	-118.0	-99407.0	679	90.65848541259766	-10.549267768859863	0.0	2056.0	2056.0	2584.0	191	174	195	185	1524080754943	both
1970-01-01 00:00:02.928	0.0	-0.25	0.0	0.0	3	83	-70	-16	-90	98475	530	0.030585825443267826	-59.33441543579102	0.0	0.0	-3680.0	-138.0	-99341.0	676	95.72652435302734	-9.880041122436523	0.0	2040.0	2108.0	2592.0	192	177	193	185	1524095785339	both
1970-01-01 00:00:02.959	0.0	-0.25	0.0	0.0	3	83	-75	-17	-91	98492	530	0.031462062150239944	-60.541015625	0.0	0.0	-4967.0	-188.0	-99310.0	675	117.81654357910156	-11.414902687072756	0.0	2012.0	2108.0	2580.0	193	176	192	185	1524110815155	both
1970-01-01 00:00:02.994	0.0	-0.25	0.0	0.0	3	83	-70	-16	-88	98478	530	0.0300635788589716	-58.92597579956055	0.0	0.0	-6279.0	-188.0	-99284.0	674	142.6815643310547	-23.54382133483887	0.0	2076.0	2076.0	2596.0	190	179	189	187	1524127850250	both
1970-01-01 00:00:03.023	0.0	-0.25	0.0	0.0	3	83	-73	-17	-91	98489	530	0.03056405298411846	-57.49657440185547	0.0	0.0	-7295.0	-174.0	-99382.0	671	152.38540649414062	-23.2395076751709	0.0	2040.0	2100.0	2596.0	185	187	183	193	1524141880310	both
1970-01-01 00:00:03.184	0.0	-0.25	0.0	0.0	3	83	-70	-22	-82	98489	530	0.033010829240083694	-57.4771842956543	0.0	0.0	-10427.0	-100.0	-99341.0	677	372.9978942871094	-25.47702980041504	0.0	2124.0	2040.0	2580.0	185	180	187	190	1524755040740	both
1970-01-01 00:00:03.250	0.0	-0.25	0.0	0.0	3	83	-73	-27	-87	98478	530	0.03468913212418556	-57.85363006591797	0.0	0.0	-10686.0	-31.0	-99371.0	678	471.87725830078125	-17.384933471679688	0.0	2092.0	2000.0	2576.0	184	181	187	191	1524787106018	both
1970-01-01 00:00:03.284	0.0	-0.25	0.0	0.0	3	83	-68	-26	-88	98495	530	0.03540155291557312	-59.1797103881836	0.0	0.0	-10707.0	-51.0	-99375.0	679	527.78466796875	-17.280105590820312	0.0	1988.0	2004.0	2588.0	184	178	189	192	1524804141174	both
1970-01-01 00:00:03.349	0.0	-0.25	0.0	0.0	3	83	-71	-31	-85	98480	530	0.03481674939393997	-58.51649856567383	0.0	0.0	-10454.0	-174.0	-99387.0	683	602.8831176757812	-16.921104431152347	0.0	1988.0	2052.0	2600.0	182	175	190	193	1524836206207	both
1970-01-01 00:00:03.379	0.0	-0.25	0.0	0.0	3	83	-77	-29	-87	98501	530	0.03527090698480606	-58.89051818847656	0.0	0.0	-10274.0	-187.0	-99398.0	687	632.234130859375	-14.89914321899414	0.0	2008.0	2024.0	2592.0	181	174	189	192	1524851236328	both
1970-01-01 00:00:03.445	0.0	-0.25	0.0	0.0	3	83	-68	-30	-86	98501	530	0.035923004150390625	-59.783103942871094	0.0	0.0	-9948.0	-268.0	-99370.0	692	714.4966430664062	-17.99380874633789	0.0	2012.0	2060.0	2588.0	180	171	190	192	1524883301727	both
1970-01-01 00:00:03.479	0.0	-0.25	0.0	0.0	3	83	-71	-31	-87	98475	530	0.03633049502968788	-59.90095901489258	0.0	0.0	-9788.0	-352.0	-99381.0	695	757.5747680664062	-17.234125137329098	0.0	1960.0	2056.0	2568.0	179	170	189	193	1524900336517	both
1970-01-01 00:00:03.510	0.0	-0.25	0.0	0.0	3	83	-72	-26	-86	98483	530	0.03577543422579765	-59.7413558959961	0.0	0.0	-9556.0	-361.0	-99413.0	698	777.0474243164062	-19.43272590637207	0.0	1996.0	2064.0	2576.0	174	171	189	196	1524915366729	both
1970-01-01 00:00:03.540	0.0	-0.25	0.0	0.0	3	83	-70	-32	-88	98486	530	0.03573143482208252	-58.8965835571289	0.0	0.0	-9380.0	-344.0	-99431.0	702	800.0123291015625	-18.59171485900879	0.0	2052.0	2076.0	2576.0	175	171	188	194	1524929396728	both
1970-01-01 00:00:03.574	0.0	-0.25	0.0	0.0	3	83	-69	-31	-83	98460	530	0.035663750022649765	-58.50697708129883	0.0	0.0	-9266.0	-317.0	-99421.0	703	819.98828125	-17.635190963745114	0.0	2100.0	2080.0	2564.0	177	170	189	193	1524944426971	both
1970-01-01 00:00:03.670	0.0	-0.25	0.0	0.0	3	83	-75	-29	-93	98478	530	0.03694724291563034	-59.85598754882813	0.0	0.0	-8682.0	-280.0	-99330.0	711	932.0220947265624	-16.01668930053711	0.0	2044.0	2064.0	2560.0	175	166	192	193	1524993527221	both
1970-01-01 00:00:03.736	0.0	-0.25	0.0	0.0	3	83	-76	-32	-90	98501	530	0.038288354873657234	-65.013916015625	0.0	0.0	-8407.0	-67.0	-99295.0	716	1022.2071533203124	-41.66558837890625	0.0	2080.0	2092.0	2572.0	174	166	196	190	1525025592437	both
1970-01-01 00:00:03.771	0.0	-0.25	0.0	0.0	3	83	-70	-32	-88	98486	530	0.03861238062381744	-64.98909759521484	0.0	0.0	-8398.0	73.0	-99276.0	718	1074.272216796875	-44.123634338378906	0.0	2024.0	2076.0	2560.0	175	166	194	190	1525042627655	both
1970-01-01 00:00:03.871	0.0	-0.25	0.0	0.0	3	83	-77	-29	-85	98492	530	0.03972737491130829	-66.10505676269531	0.0	0.0	-8850.0	413.0	-99417.0	726	1169.0189208984375	-40.728477478027344	0.0	2016.0	2040.0	2584.0	173	171	189	192	1525091727661	both
1970-01-01 00:00:03.901	0.0	-0.25	0.0	0.0	3	83	-73	-29	-87	98492	530	0.04026895388960838	-65.08871459960939	0.0	0.0	-8967.0	352.0	-99436.0	727	1182.5955810546875	-28.85871315002441	0.0	2056.0	2084.0	2580.0	174	171	188	193	1525106757781	both
1970-01-01 00:00:03.931	0.0	-0.25	0.0	0.0	3	83	-78	-30	-88	98475	530	0.04083624482154846	-65.49551391601561	0.0	0.0	-9107.0	265.0	-99470.0	731	1201.623046875	-22.70871353149414	0.0	2056.0	2080.0	2568.0	171	172	185	194	1525120788085	both
1970-01-01 00:00:03.961	0.0	-0.25	0.0	0.0	3	83	-78	-30	-88	98475	530	0.0407399982213974	-63.63283920288086	0.0	0.0	-9201.0	168.0	-99510.0	733	1216.09716796875	-16.864110946655273	0.0	2012.0	2028.0	2572.0	172	171	187	194	1525135818023	both
1970-01-01 00:00:04.061	0.0	-0.25	0.0	0.0	3	83	-74	-34	-88	98478	530	0.04129582270979881	-63.2744026184082	0.0	0.0	-9378.0	-303.0	-99687.0	743	1253.148681640625	-13.018437385559082	0.0	2056.0	2080.0	2556.0	166	175	176	201	1525184918243	both
1970-01-01 00:00:05.949	0.0	0.25	0.0	0.0	4	83	-80	-4	-82	98472	530	0.03498201444745064	-43.599308013916016	0.0	0.0	-2045.0	1842.0	-99183.0	781	-45.45237350463867	61.10319900512695	0.0	2096.0	2052.0	2580.0	176	175	181	173	1527176804016	both
1970-01-01 00:00:05.982	0.0	0.25	0.0	0.0	3	83	-74	-6	-84	98480	530	0.034781742841005325	-43.0120964050293	0.0	0.0	-2005.0	1652.0	-99182.0	780	-49.82575988769531	68.78285980224611	0.0	2092.0	2016.0	2564.0	183	178	174	171	1527193839111	both
1970-01-01 00:00:06.083	0.0	0.25	0.0	0.0	3	83	-77	-3	-85	98478	530	0.03804957494139671	-40.36187362670898	0.0	0.0	-305.0	1644.0	-98982.0	778	-48.37063217163086	102.01151275634766	0.0	1992.0	1996.0	2568.0	185	173	181	169	1527242939422	both
1970-01-01 00:00:06.148	0.0	0.25	0.0	0.0	3	83	-72	0	-86	98463	530	0.03853219375014305	-38.97777557373047	0.0	0.0	1994.0	1579.0	-98796.0	784	-67.93521881103516	120.44820404052734	0.0	1972.0	2020.0	2576.0	181	168	184	169	1527810004486	both
1970-01-01 00:00:06.178	0.0	0.25	0.0	0.0	3	83	-77	5	-81	98501	530	0.0396278090775013	-36.50446319580078	0.0	0.0	3078.0	1406.0	-98727.0	783	-93.21297454833984	133.27976989746094	0.0	2056.0	2072.0	2544.0	181	166	185	172	1527824034729	both
1970-01-01 00:00:06.213	0.0	0.25	0.0	0.0	3	83	-75	9	-89	98501	530	0.03880714252591133	-34.66796112060547	0.0	0.0	4205.0	1236.0	-98660.0	787	-128.57504272460938	134.12945556640622	0.0	1968.0	2048.0	2568.0	180	166	183	171	1527842069824	both
1970-01-01 00:00:06.243	0.0	0.25	0.0	0.0	3	83	-75	9	-85	98492	530	0.039394594728946686	-34.110618591308594	0.0	0.0	5096.0	1127.0	-98630.0	786	-160.6770477294922	132.62542724609378	0.0	2064.0	2108.0	2560.0	180	166	183	173	1527856099761	both
1970-01-01 00:00:06.278	0.0	0.25	0.0	0.0	3	83	-75	11	-83	98489	530	0.04098065569996834	-31.71752166748047	0.0	0.0	5944.0	972.0	-98553.0	785	-191.2228546142578	147.64938354492188	0.0	2012.0	2056.0	2568.0	184	165	185	172	1527873134887	both
1970-01-01 00:00:06.308	0.0	0.25	0.0	0.0	3	83	-71	13	-89	98478	530	0.04081440344452858	-31.240234375	0.0	0.0	6555.0	761.0	-98486.0	789	-240.05601501464844	159.0194549560547	0.0	2064.0	2128.0	2560.0	184	163	182	172	1527888164978	both
1970-01-01 00:00:06.339	0.0	0.25	0.0	0.0	3	83	-77	17	-85	98469	530	0.03903928026556969	-33.159225463867195	0.0	0.0	7019.0	458.0	-98440.0	791	-272.90972900390625	147.6387176513672	0.0	2056.0	2132.0	2556.0	184	163	181	172	1527903195220	both
1970-01-01 00:00:06.404	0.0	0.25	0.0	0.0	3	83	-68	16	-86	98478	530	0.04101429507136345	-29.545284271240234	0.0	0.0	7532.0	-169.0	-98368.0	793	-361.8074035644531	147.46128845214844	0.0	2012.0	2092.0	2572.0	189	164	177	171	1527935260192	both
1970-01-01 00:00:06.434	0.0	0.25	0.0	0.0	3	83	-74	12	-86	98495	530	0.04118181765079498	-30.775835037231445	0.0	0.0	7641.0	-422.0	-98328.0	792	-383.8712158203125	141.49620056152344	0.0	1972.0	2048.0	2588.0	191	164	177	171	1527949290344	both
1970-01-01 00:00:06.464	0.0	0.25	0.0	0.0	3	83	-73	17	-79	98492	530	0.0417514406144619	-27.48886299133301	0.0	0.0	7659.0	-634.0	-98281.0	793	-434.6393432617188	148.09271240234375	0.0	2004.0	2040.0	2556.0	193	164	177	170	1527964320526	both
1970-01-01 00:00:06.494	0.0	0.25	0.0	0.0	3	83	-71	19	-89	98486	530	0.040730409324169166	-26.2856559753418	0.0	0.0	7637.0	-812.0	-98208.0	792	-482.4562683105469	145.44261169433594	0.0	2056.0	2080.0	2524.0	196	161	181	166	1527979350677	both
1970-01-01 00:00:06.524	0.0	0.25	0.0	0.0	3	83	-67	17	-87	98475	530	0.043033987283706665	-25.30866622924805	0.0	0.0	7538.0	-1031.0	-98174.0	791	-519.306396484375	154.44210815429688	0.0	2096.0	2100.0	2532.0	197	164	176	169	1527993380859	both
1970-01-01 00:00:06.559	0.0	0.25	0.0	0.0	3	83	-69	17	-85	98504	530	0.0422658771276474	-22.0757999420166	0.0	0.0	7392.0	-1284.0	-98265.0	791	-582.8751220703125	143.03970336914062	0.0	2036.0	2096.0	2516.0	190	172	168	177	1528010415679	both
1970-01-01 00:00:06.589	0.0	0.25	0.0	0.0	3	83	-68	20	-86	98478	530	0.0405743233859539	-21.921640396118164	0.0	0.0	7215.0	-1397.0	-98234.0	789	-613.1612548828125	125.35053253173828	0.0	2068.0	2100.0	2544.0	197	169	172	170	1528025445831	both
1970-01-01 00:00:06.655	0.0	0.25	0.0	0.0	3	83	-65	19	-89	98472	530	0.04472535848617554	-18.72219657897949	0.0	0.0	6942.0	-1561.0	-98270.0	783	-674.5697631835938	156.6654510498047	0.0	2112.0	2036.0	2552.0	199	172	171	173	1528057511138	both
1970-01-01 00:00:06.689	0.0	0.25	0.0	0.0	3	83	-67	15	-81	98498	530	0.045443739742040634	-19.979887008666992	0.0	0.0	6835.0	-1616.0	-98283.0	780	-689.7568359375	147.879638671875	0.0	2096.0	2084.0	2536.0	199	171	175	170	1528074546081	both
1970-01-01 00:00:06.725	0.0	0.25	0.0	0.0	3	83	-67	17	-81	98501	530	0.04612520709633827	-19.53050422668457	0.0	0.0	6726.0	-1579.0	-98266.0	777	-786.0159912109375	141.48147583007812	0.0	2032.0	2128.0	2544.0	200	173	175	170	1528091581207	both
1970-01-01 00:00:06.755	0.0	0.25	0.0	0.0	3	83	-62	18	-88	98469	530	0.04610642045736313	-11.774563789367676	0.0	0.0	6673.0	-1628.0	-98279.0	771	-854.51318359375	127.17858123779295	0.0	2076.0	2124.0	2548.0	202	173	174	173	1528106611358	both
1970-01-01 00:00:06.820	0.0	0.25	0.0	0.0	3	83	-70	14	-86	98483	530	0.043408732861280434	-7.003237724304199	0.0	0.0	6467.0	-1539.0	-98430.0	764	-930.7443237304688	68.16015625	0.0	2136.0	2072.0	2548.0	197	183	168	176	1528138676574	both
1970-01-01 00:00:06.850	0.0	0.25	0.0	0.0	3	83	-70	18	-86	98511	529	0.04381164163351059	-5.415355205535889	0.0	0.0	6451.0	-1511.0	-98454.0	763	-947.8549194335938	62.69572830200195	0.0	2028.0	2028.0	2600.0	196	182	169	176	1528143686492	both
1970-01-01 00:00:06.915	0.0	0.25	0.0	0.0	3	83	-69	17	-87	98511	530	0.04264731332659722	-1.894934892654419	0.0	0.0	6326.0	-1325.0	-98639.0	757	-1049.3123779296877	14.842134475708008	0.0	2168.0	2084.0	2572.0	194	185	166	178	1528184771820	both
1970-01-01 00:00:07.012	0.0	0.25	0.0	0.0	3	83	-72	22	-86	98492	529	0.04366600140929222	2.3239939212799072	0.0	0.0	6498.0	-724.0	-98856.0	746	-1126.1856689453125	-20.12226104736328	0.0	2096.0	2136.0	2592.0	194	188	171	176	1528231867004	both
1970-01-01 00:00:07.041	0.0	0.25	0.0	0.0	3	83	-63	19	-85	98466	529	0.04238518700003624	2.2993180751800537	0.0	0.0	6556.0	-537.0	-98797.0	742	-1143.84033203125	-16.77134895324707	0.0	2048.0	2104.0	2592.0	206	178	181	166	1528246897338	both
1970-01-01 00:00:07.075	0.0	0.25	0.0	0.0	3	83	-73	25	-89	98480	530	0.04365652427077293	2.5930063724517822	0.0	0.0	6653.0	-286.0	-98794.0	739	-1157.690185546875	-18.768115997314453	0.0	2116.0	2036.0	2612.0	199	184	178	170	1528263932250	both
1970-01-01 00:00:07.106	0.0	0.25	0.0	0.0	3	83	-74	12	-84	98498	530	0.04410138726234436	3.1745924949646	0.0	0.0	6757.0	-123.0	-98815.0	737	-1172.841064453125	-19.250242233276367	0.0	2068.0	2028.0	2600.0	200	182	178	170	1528277962524	both
1970-01-01 00:00:08.284	0.0	0.25	0.0	0.0	8	82	-74	-4	-82	98492	529	0.0593765527009964	18.116857528686523	0.0	0.0	643.0	528.0	-99405.0	734	-223.84051513671875	86.19261169433594	0.0	2056.0	2088.0	2584.0	183	175	178	180	1529924140747	both
1970-01-01 00:00:08.450	0.0	0.25	0.0	0.0	3	82	-72	6	-90	98486	529	0.05985447019338608	13.400224685668945	0.0	0.0	3789.0	145.0	-99366.0	733	-204.0384826660156	84.44662475585938	0.0	2100.0	1964.0	2588.0	190	176	178	174	1530005306274	both
1970-01-01 00:00:08.485	0.0	0.25	0.0	0.0	3	82	-75	3	-89	98463	529	0.06177017465233803	10.531988143920898	0.0	0.0	4941.0	109.0	-99354.0	733	-216.49122619628903	93.38104248046876	0.0	2108.0	1968.0	2560.0	188	176	178	179	1530022341430	both
1970-01-01 00:00:08.516	0.0	0.25	0.0	0.0	3	82	-70	8	-90	98472	529	0.06228562444448471	11.853440284729006	0.0	0.0	5953.0	59.0	-99329.0	732	-243.9561309814453	100.11702728271484	0.0	2112.0	1952.0	2596.0	190	175	180	179	1530037371398	both
1970-01-01 00:00:08.550	0.0	0.25	0.0	0.0	3	82	-71	11	-87	98466	529	0.06249629333615302	11.507744789123535	0.0	0.0	6974.0	-58.0	-99327.0	732	-278.7861328125	101.77149963378906	0.0	2080.0	2048.0	2560.0	187	178	175	184	1530054406677	both
1970-01-01 00:00:08.581	0.0	0.25	0.0	0.0	3	82	-72	14	-90	98499	529	0.06270122528076172	11.872153282165527	0.0	0.0	7806.0	-180.0	-99356.0	733	-311.82318115234375	98.12954711914062	0.0	2104.0	2012.0	2592.0	186	178	176	185	1530069436889	both
1970-01-01 00:00:08.611	0.0	0.25	0.0	0.0	3	82	-71	15	-85	98483	529	0.06268958747386932	12.64004898071289	0.0	0.0	8486.0	-187.0	-99368.0	733	-346.6496887207031	89.57816314697266	0.0	2100.0	1988.0	2596.0	185	180	176	184	1530083466796	both
1970-01-01 00:00:08.641	0.0	0.25	0.0	0.0	3	82	-73	13	-87	98460	529	0.06343454122543335	11.287564277648926	0.0	0.0	9033.0	-212.0	-99356.0	734	-367.755859375	94.32037353515624	0.0	2084.0	1996.0	2596.0	188	177	178	181	1530098496856	both
1970-01-01 00:00:08.671	0.0	0.25	0.0	0.0	3	82	-70	16	-88	98472	529	0.06362805515527725	11.455055236816404	0.0	0.0	9529.0	-216.0	-99331.0	737	-406.4953002929688	98.38832092285156	0.0	2060.0	2016.0	2576.0	189	176	180	179	1530113527099	both
1970-01-01 00:00:08.701	0.0	0.25	0.0	0.0	3	82	-71	25	-83	98511	529	0.06533511728048325	13.730077743530273	0.0	0.0	9896.0	-257.0	-99331.0	736	-476.27374267578125	95.7073745727539	0.0	2048.0	2040.0	2576.0	190	178	178	181	1530128557495	both
1970-01-01 00:00:08.799	0.0	0.25	0.0	0.0	3	82	-69	19	-85	98460	529	0.06594957411289215	14.813562393188475	0.0	0.0	10422.0	-381.0	-99376.0	736	-621.171875	76.10051727294922	0.0	2060.0	2036.0	2568.0	192	182	174	182	1530174652465	both
1970-01-01 00:00:08.831	0.0	0.25	0.0	0.0	3	82	-70	20	-84	98472	529	0.06511574238538742	13.983927726745605	0.0	0.0	10423.0	-467.0	-99391.0	735	-654.73486328125	68.85227966308594	0.0	2028.0	2048.0	2580.0	191	183	174	184	1530191687683	both
1970-01-01 00:00:08.912	0.0	0.25	0.0	0.0	3	82	-72	22	-82	98463	529	0.06591729819774628	14.36738109588623	0.0	0.0	10295.0	-477.0	-99390.0	735	-749.6514282226562	65.92575836181639	0.0	2128.0	2044.0	2560.0	194	182	174	180	1530218742919	both
1970-01-01 00:00:08.976	0.0	0.25	0.0	0.0	3	82	-67	23	-87	98489	529	0.0660705417394638	14.826210021972654	0.0	0.0	9930.0	-399.0	-99347.0	731	-855.8377685546875	37.599769592285156	0.0	2016.0	1968.0	2604.0	197	184	174	179	1530262832885	both
1970-01-01 00:00:09.007	0.0	0.25	0.0	0.0	3	82	-69	21	-87	98478	529	0.06603938341140747	14.846709251403807	0.0	0.0	9743.0	-445.0	-99324.0	728	-884.3504028320312	56.30062484741211	0.0	2004.0	1968.0	2592.0	199	185	171	180	1530277863128	both
1970-01-01 00:00:09.067	0.0	0.25	0.0	0.0	3	82	-65	27	-87	98478	529	0.06605507433414459	14.99795627593994	0.0	0.0	9237.0	-549.0	-99404.0	726	-949.1087646484376	29.789825439453125	0.0	2088.0	2028.0	2572.0	196	190	168	181	1530306923278	both
1970-01-01 00:00:09.127	0.0	0.25	0.0	0.0	3	82	-70	24	-84	98489	529	0.06654264777898787	15.20539093017578	0.0	0.0	8905.0	-620.0	-99457.0	722	-999.2546997070312	19.326631546020508	0.0	2140.0	2112.0	2596.0	197	191	168	182	1530336983489	both
1970-01-01 00:00:09.193	0.0	0.25	0.0	0.0	3	82	-69	25	-87	98454	529	0.06678524613380432	14.880562782287598	0.0	0.0	8674.0	-668.0	-99579.0	721	-1056.76513671875	21.906301498413086	0.0	2116.0	2008.0	2604.0	193	195	164	184	1530903048767	both
1970-01-01 00:00:09.258	0.0	0.25	0.0	0.0	3	82	-66	20	-86	98499	529	0.06711211055517198	14.479755401611328	0.0	0.0	8404.0	-573.0	-99550.0	721	-1096.5323486328123	27.63774490356445	0.0	2048.0	2120.0	2596.0	196	193	165	180	1530935113769	both
1970-01-01 00:00:09.353	0.0	0.25	0.0	0.0	3	82	-67	23	-89	98478	529	0.06678682565689087	13.83644962310791	0.0	0.0	8079.0	-63.0	-99624.0	723	-1162.37939453125	11.185317039489746	0.0	2128.0	2120.0	2580.0	193	194	168	175	1530982209167	both
1970-01-01 00:00:09.448	0.0	0.25	0.0	0.0	3	82	-74	22	-86	98466	529	0.07167108356952667	20.647062301635746	0.0	0.0	8456.0	429.0	-99716.0	734	-1327.6416015625	19.557565689086914	0.0	2188.0	1996.0	2568.0	188	190	166	176	1531028304260	both
1970-01-01 00:00:09.478	0.0	0.25	0.0	0.0	3	82	-71	23	-87	98478	529	0.0721152275800705	20.476200103759766	0.0	0.0	8615.0	502.0	-99776.0	737	-1300.5076904296875	17.868024826049805	0.0	2152.0	2004.0	2584.0	187	192	163	177	1531043334350	both
1970-01-01 00:00:11.153	0.0	-0.25	0.0	0.0	3	82	-80	4	-90	98466	529	0.07173588871955873	-24.02306365966797	0.0	0.0	2979.0	681.0	-100096.0	749	-3.865091800689697	-17.714786529541016	0.0	2044.0	2072.0	2572.0	173	177	179	193	1532932009643	both
1970-01-01 00:00:11.218	0.0	-0.25	0.0	0.0	3	82	-81	-3	-91	98475	529	0.07421503216028214	-25.66912078857422	0.0	0.0	1294.0	273.0	-100055.0	745	-7.811169624328612	0.16450783610343933	0.0	2040.0	2044.0	2584.0	184	172	182	183	1532964074554	both
1970-01-01 00:00:11.254	0.0	-0.25	0.0	0.0	3	82	-74	6	-94	98502	529	0.07467442005872726	-26.655902862548828	0.0	0.0	9.0	-101.0	-100168.0	743	1.3357471227645874	5.096376419067383	0.0	2096.0	2008.0	2576.0	178	181	170	192	1532981109649	both
1970-01-01 00:00:11.319	0.0	-0.25	0.0	0.0	3	82	-77	-7	-97	98480	529	0.07525782287120819	-29.398475646972656	0.0	0.0	-2492.0	-243.0	-100217.0	740	40.037357330322266	-5.348387718200684	0.0	2088.0	2000.0	2564.0	182	181	173	185	1533013174865	both
1970-01-01 00:00:11.350	0.0	-0.25	0.0	0.0	3	82	-74	-10	-92	98454	529	0.07615207135677338	-29.91350746154785	0.0	0.0	-3522.0	-240.0	-100219.0	738	60.22729873657226	-4.556525230407715	0.0	2104.0	2028.0	2568.0	185	180	174	184	1533028205169	both
1970-01-01 00:00:11.384	0.0	-0.25	0.0	0.0	3	82	-76	-14	-90	98489	529	0.07742708921432495	-31.192102432250977	0.0	0.0	-4501.0	-264.0	-100183.0	737	100.4908676147461	-4.827661991119385	0.0	2052.0	1964.0	2564.0	184	179	176	185	1533045240112	both
1970-01-01 00:00:11.414	0.0	-0.25	0.0	0.0	3	82	-76	-8	-96	98505	529	0.07717118412256241	-31.25893211364746	0.0	0.0	-5219.0	-208.0	-100176.0	736	126.1716766357422	-4.333762645721436	0.0	2088.0	1992.0	2560.0	182	182	173	186	1533059270172	both
1970-01-01 00:00:11.509	0.0	-0.25	0.0	0.0	3	82	-73	-11	-97	98489	529	0.07933925092220306	-34.301963806152344	0.0	0.0	-6758.0	-100.0	-100151.0	736	251.6470642089844	-2.6024644374847408	0.0	2084.0	1996.0	2556.0	184	177	179	182	1533106365600	both
1970-01-01 00:00:11.540	0.0	-0.25	0.0	0.0	3	82	-80	-14	-96	98475	529	0.0805395096540451	-35.084606170654304	0.0	0.0	-7088.0	-84.0	-100092.0	736	287.0677795410156	2.945927143096924	0.0	2092.0	2056.0	2584.0	185	177	179	182	1533121395751	both
1970-01-01 00:00:11.574	0.0	-0.25	0.0	0.0	3	82	-81	-17	-91	98466	529	0.08121149241924286	-36.15898132324219	0.0	0.0	-7375.0	-146.0	-100097.0	738	337.35565185546875	0.3839657306671143	0.0	2044.0	1964.0	2560.0	181	178	175	186	1533138430572	both
1970-01-01 00:00:11.605	0.0	-0.25	0.0	0.0	3	82	-78	-20	-96	98486	529	0.08171837031841278	-37.16560363769531	0.0	0.0	-7465.0	-95.0	-100111.0	737	387.861572265625	-7.115088939666747	0.0	2072.0	2016.0	2564.0	179	178	176	188	1533153460906	both
1970-01-01 00:00:11.635	0.0	-0.25	0.0	0.0	3	82	-76	-18	-96	98499	529	0.08276903629302979	-38.2084846496582	0.0	0.0	-7526.0	-53.0	-100145.0	736	429.3470153808594	-5.494066715240479	0.0	2076.0	2076.0	2580.0	179	179	175	190	1533167491088	both
1970-01-01 00:00:11.670	0.0	-0.25	0.0	0.0	3	82	-75	-19	-91	98486	529	0.08405235409736632	-39.15818786621094	0.0	0.0	-7495.0	-14.0	-100127.0	736	474.59747314453125	-4.017381668090819	0.0	2032.0	1964.0	2572.0	179	176	179	189	1533185526367	both
1970-01-01 00:00:11.705	0.0	-0.25	0.0	0.0	3	82	-75	-19	-95	98486	529	0.08442433178424835	-39.62480545043945	0.0	0.0	-7414.0	-10.0	-100111.0	736	516.5231323242189	-1.7952001094818115	0.0	2032.0	1964.0	2568.0	180	174	178	190	1533201560882	both
1970-01-01 00:00:11.735	0.0	-0.25	0.0	0.0	3	82	-76	-14	-94	98483	528	0.08438702672719955	-41.19585037231445	0.0	0.0	-7323.0	-53.0	-100126.0	736	555.8090209960939	-8.15274715423584	0.0	2024.0	1948.0	2572.0	176	176	177	193	1533216591217	both
1970-01-01 00:00:11.766	0.0	-0.25	0.0	0.0	3	82	-76	-18	-94	98499	529	0.08353938162326813	-41.519203186035156	0.0	0.0	-7183.0	31.0	-100150.0	738	579.989501953125	-19.67873954772949	0.0	2012.0	1972.0	2580.0	173	176	178	192	1533231621307	both
1970-01-01 00:00:11.795	0.0	-0.25	0.0	0.0	3	82	-77	-19	-93	98490	528	0.08581414073705672	-42.50622177124024	0.0	0.0	-7080.0	125.0	-100102.0	738	617.0723266601562	-13.171499252319336	0.0	2012.0	2032.0	2584.0	177	171	184	186	1533246651458	both
1970-01-01 00:00:11.896	0.0	-0.25	0.0	0.0	3	82	-78	-22	-90	98499	529	0.08884183317422867	-48.15682601928711	0.0	0.0	-6566.0	267.0	-100102.0	736	802.7742309570312	-19.949161529541016	0.0	2052.0	1988.0	2564.0	175	171	186	190	1533295751678	both
1970-01-01 00:00:11.991	0.0	-0.25	0.0	0.0	3	82	-78	-18	-90	98508	528	0.08853660523891449	-50.83824157714844	0.0	0.0	-6237.0	199.0	-100089.0	738	885.092529296875	-57.99193954467773	0.0	2032.0	2040.0	2560.0	170	172	182	196	1533341846984	both
1970-01-01 00:00:12.086	0.0	-0.25	0.0	0.0	3	82	-72	-16	-92	98486	528	0.0887117087841034	-52.04452514648438	0.0	0.0	-6086.0	14.0	-100037.0	732	921.0342407226562	-46.73932647705078	0.0	2024.0	2076.0	2564.0	174	171	184	197	1533387942016	both
1970-01-01 00:00:12.116	0.0	-0.25	0.0	0.0	3	82	-76	-14	-94	98480	529	0.08865980803966522	-52.26700210571289	0.0	0.0	-6103.0	-6.0	-100062.0	730	1001.446533203125	-16.06528091430664	0.0	2040.0	2068.0	2556.0	172	173	184	199	1533402972320	both
1970-01-01 00:00:12.146	0.0	-0.25	0.0	0.0	3	82	-76	-20	-98	98493	528	0.08869031071662903	-52.387489318847656	0.0	0.0	-6085.0	36.0	-100050.0	729	1094.8443603515623	-5.251218318939209	0.0	2020.0	2020.0	2568.0	172	172	186	198	1533953002136	both
1970-01-01 00:00:12.211	0.0	-0.25	0.0	0.0	3	82	-73	-17	-93	98496	528	0.0984896793961525	-56.90737915039063	0.0	0.0	-6100.0	-165.0	-99963.0	727	1166.963623046875	4.627877235412598	0.0	1996.0	2000.0	2592.0	174	170	186	198	1533984067474	both
1970-01-01 00:00:12.241	0.0	-0.25	0.0	0.0	3	82	-72	-20	-92	98490	528	0.1020381599664688	-60.07319641113281	0.0	0.0	-6089.0	-189.0	-99949.0	726	1231.0972900390625	-8.586226463317871	0.0	1968.0	1984.0	2588.0	175	167	190	195	1533999097534	both
1970-01-01 00:00:12.272	0.0	-0.25	0.0	0.0	3	82	-76	-22	-94	98496	528	0.10235009342432022	-60.90832901000977	0.0	0.0	-6083.0	-185.0	-99888.0	725	1230.5980224609375	-17.24492073059082	0.0	1976.0	2012.0	2588.0	178	165	190	195	1534014127777	both
1970-01-01 00:00:12.336	0.0	-0.25	0.0	0.0	3	82	-77	-27	-91	98496	528	0.10291403532028197	-62.1130256652832	0.0	0.0	-6199.0	-240.0	-99844.0	722	1245.128662109375	-56.894287109375	0.0	2016.0	2040.0	2580.0	173	171	187	199	1534046192749	both
1970-01-01 00:00:12.462	0.0	-0.25	0.0	0.0	3	82	-71	-25	-89	98483	528	0.09941679239273073	-64.59856414794922	0.0	0.0	-6551.0	-262.0	-99837.0	721	1269.9425048828125	-68.296142578125	0.0	1960.0	2092.0	2580.0	170	172	185	201	1534107318206	both
1970-01-01 00:00:12.492	0.0	-0.25	0.0	0.0	3	82	-75	-21	-97	98480	528	0.09939447790384293	-64.80158996582031	0.0	0.0	-6676.0	-260.0	-99738.0	722	1262.351318359375	-77.4283447265625	0.0	1968.0	2060.0	2588.0	178	166	190	193	1534122348266	both
1970-01-01 00:00:12.522	0.0	-0.25	0.0	0.0	3	82	-71	-25	-91	98496	528	0.09915318340063096	-64.93941497802734	0.0	0.0	-6762.0	-255.0	-99736.0	723	1264.0491943359375	-88.63956451416016	0.0	2056.0	2024.0	2564.0	175	168	188	195	1534134373748	both
1970-01-01 00:00:13.756	0.0	-0.25	0.0	0.0	3	81	-68	0	-90	98472	528	0.10716499388217926	-69.41220855712889	0.0	0.0	-895.0	235.0	-99853.0	734	251.8040771484375	34.068702697753906	0.0	2056.0	2056.0	2584.0	175	170	187	195	1535275612365	both
1970-01-01 00:00:13.818	0.0	-0.25	0.0	0.0	3	81	-75	-9	-93	98490	528	0.10419181734323503	-69.57460784912111	0.0	0.0	-2582.0	290.0	-99816.0	733	233.5170745849609	25.81283187866211	0.0	2140.0	2028.0	2584.0	177	171	186	191	1535304672302	both
1970-01-01 00:00:13.851	0.0	-0.25	0.0	0.0	3	81	-74	-8	-90	98487	528	0.10355284810066223	-69.63226318359375	0.0	0.0	-3809.0	277.0	-99814.0	731	234.73789978027344	19.241676330566406	0.0	2116.0	2020.0	2568.0	180	173	185	189	1535321707397	both
1970-01-01 00:00:14.042	0.0	-0.25	0.0	0.0	3	81	-72	-22	-94	98460	528	0.09960313886404036	-67.62356567382811	0.0	0.0	-9272.0	422.0	-99670.0	726	358.3459167480469	24.703887939453125	0.0	2052.0	2024.0	2576.0	185	177	186	188	1535414897979	both
1970-01-01 00:00:14.142	0.0	-0.25	0.0	0.0	3	81	-73	-27	-87	98484	528	0.0972803235054016	-67.67824554443361	0.0	0.0	-10128.0	363.0	-99638.0	727	481.01934814453125	19.9637393951416	0.0	2092.0	2056.0	2592.0	182	175	187	190	1535463998229	both
1970-01-01 00:00:14.172	0.0	-0.25	0.0	0.0	3	81	-74	-26	-84	98475	528	0.09756851941347122	-68.07872009277344	0.0	0.0	-10247.0	325.0	-99622.0	730	522.7896118164061	19.238452911376953	0.0	2116.0	2056.0	2604.0	179	174	186	191	1536013028259	both
1970-01-01 00:00:14.202	0.0	-0.25	0.0	0.0	3	81	-67	-23	-85	98457	528	0.09671958535909653	-67.49723052978516	0.0	0.0	-10297.0	340.0	-99609.0	731	554.7351684570311	24.340219497680664	0.0	2104.0	2044.0	2596.0	179	174	186	191	1536028058563	both
1970-01-01 00:00:14.238	0.0	-0.25	0.0	0.0	3	81	-71	-23	-93	98454	528	0.09659435600042343	-67.30923461914061	0.0	0.0	-10304.0	261.0	-99592.0	732	593.111083984375	28.51274108886719	0.0	2128.0	2060.0	2584.0	179	171	187	191	1536045093688	both
1970-01-01 00:00:14.308	0.0	-0.25	0.0	0.0	3	81	-72	-28	-90	98478	528	0.09490003436803818	-67.43394470214844	0.0	0.0	-10216.0	239.0	-99552.0	736	668.7001342773438	21.731088638305664	0.0	1916.0	2024.0	2592.0	179	169	189	190	1536080163940	both
1970-01-01 00:00:14.341	0.0	-0.25	0.0	0.0	3	81	-70	-26	-88	98478	528	0.09408582746982573	-67.16735076904297	0.0	0.0	-10126.0	234.0	-99553.0	737	692.95849609375	24.635234832763672	0.0	1944.0	2032.0	2588.0	176	170	187	192	1536094193817	both
1970-01-01 00:00:14.373	0.0	-0.25	0.0	0.0	3	81	-70	-24	-92	98460	528	0.09354335814714433	-67.23574066162111	0.0	0.0	-10095.0	184.0	-99502.0	738	740.8468627929688	26.01821136474609	0.0	1984.0	2020.0	2600.0	180	168	189	189	1536112229614	both
1970-01-01 00:00:14.403	0.0	-0.25	0.0	0.0	3	81	-70	-28	-88	98469	528	0.09229924529790877	-66.82157135009766	0.0	0.0	-10093.0	140.0	-99468.0	739	771.52001953125	30.11579513549805	0.0	2000.0	2028.0	2600.0	179	169	187	191	1536126259124	both
1970-01-01 00:00:14.438	0.0	-0.25	0.0	0.0	3	81	-71	-31	-87	98472	528	0.09173715114593506	-67.75691986083984	0.0	0.0	-10062.0	19.0	-99442.0	742	807.626953125	18.85210609436035	0.0	2044.0	2020.0	2576.0	177	168	186	192	1536143294311	both
1970-01-01 00:00:14.563	0.0	-0.25	0.0	0.0	3	81	-67	-29	-85	98481	528	0.09395818412303923	-69.44762420654297	0.0	0.0	-9803.0	-261.0	-99519.0	744	1027.81640625	23.501338958740234	0.0	2056.0	2104.0	2560.0	175	170	184	196	1536204419647	both
1970-01-01 00:00:14.628	0.0	-0.25	0.0	0.0	3	81	-66	-28	-92	98490	528	0.0947376787662506	-69.21615600585939	0.0	0.0	-9665.0	-288.0	-99505.0	745	1063.418701171875	40.69363403320313	0.0	1972.0	2088.0	2576.0	178	166	187	194	1536236484588	both
1970-01-01 00:00:14.729	0.0	-0.25	0.0	0.0	3	81	-70	-22	-84	98511	528	0.09497144818305968	-69.55361938476561	0.0	0.0	-9461.0	-339.0	-99648.0	753	1095.950439453125	59.5177001953125	0.0	2032.0	2076.0	2572.0	172	168	184	195	1536285584960	both
1970-01-01 00:00:14.759	0.0	-0.25	0.0	0.0	3	81	-71	-29	-91	98493	528	0.09482679516077043	-69.59446716308594	0.0	0.0	-9394.0	-343.0	-99674.0	755	1116.7181396484377	53.35356903076172	0.0	2004.0	2108.0	2564.0	171	167	185	194	1536300615447	both
1970-01-01 00:00:14.824	0.0	-0.25	0.0	0.0	3	81	-72	-26	-88	98499	528	0.09450139850378036	-69.72150421142578	0.0	0.0	-9194.0	-301.0	-99818.0	758	1169.7457275390625	50.06130599975586	0.0	1972.0	2096.0	2572.0	166	171	182	200	1536332680114	both
1970-01-01 00:00:14.854	0.0	-0.25	0.0	0.0	3	81	-66	-24	-90	98475	528	0.09449780732393263	-69.75849151611328	0.0	0.0	-9210.0	-200.0	-99789.0	758	1208.619140625	26.927703857421875	0.0	1984.0	2064.0	2580.0	171	168	186	194	1536346710327	both
1970-01-01 00:00:14.885	0.0	-0.25	0.0	0.0	3	81	-63	-31	-89	98490	528	0.09456918388605118	-69.64739227294922	0.0	0.0	-9240.0	-86.0	-99805.0	761	1275.265869140625	0.37955209612846375	0.0	2000.0	2024.0	2580.0	170	169	184	194	1536361740600	both
1970-01-01 00:00:16.228	0.0	0.25	0.0	0.0	3	81	-80	-2	-88	98466	528	0.0834965705871582	-68.77595520019531	0.0	0.0	118.0	143.0	-99910.0	734	107.21062469482422	-3.9632413387298575	0.0	2004.0	2048.0	2580.0	176	175	184	193	1538089084503	both
1970-01-01 00:00:16.258	0.0	0.25	0.0	0.0	3	81	-71	5	-91	98475	528	0.08260028809309006	-67.34846496582031	0.0	0.0	100.0	182.0	-99846.0	735	88.44222259521484	3.613511562347412	0.0	2020.0	2100.0	2580.0	186	173	184	181	1538103114471	both
1970-01-01 00:00:16.324	0.0	0.25	0.0	0.0	3	81	-66	2	-86	98478	528	0.08170446753501892	-66.04775238037111	0.0	0.0	540.0	147.0	-99759.0	731	59.88650894165039	8.477494239807129	0.0	1996.0	2096.0	2596.0	185	176	181	184	1538135179840	both
1970-01-01 00:00:16.389	0.0	0.25	0.0	0.0	3	81	-75	7	-89	98493	528	0.08016766607761383	-65.12018585205078	0.0	0.0	1862.0	109.0	-99747.0	730	26.674257278442386	5.422059059143066	0.0	2040.0	2056.0	2596.0	183	175	180	186	1538167244812	both
1970-01-01 00:00:16.424	0.0	0.25	0.0	0.0	3	81	-72	8	-88	98490	528	0.08025316894054413	-63.83745574951172	0.0	0.0	2704.0	164.0	-99623.0	730	8.89648723602295	6.87434196472168	0.0	2132.0	1980.0	2604.0	185	172	184	183	1538184280090	both
1970-01-01 00:00:16.459	0.0	0.25	0.0	0.0	3	81	-69	15	-85	98490	528	0.07919595390558243	-62.63214111328125	0.0	0.0	3538.0	173.0	-99565.0	730	-19.292015075683594	12.758543968200685	0.0	2100.0	1996.0	2568.0	183	173	182	185	1538201315368	both
1970-01-01 00:00:16.489	0.0	0.25	0.0	0.0	3	81	-68	6	-82	98469	528	0.07796257734298706	-62.87428283691406	0.0	0.0	4175.0	181.0	-99551.0	731	-47.975929260253906	4.189329147338866	0.0	2136.0	1988.0	2572.0	181	174	179	186	1538216345336	both
1970-01-01 00:00:16.519	0.0	0.25	0.0	0.0	3	81	-73	7	-87	98463	528	0.07726233452558517	-62.65226745605469	0.0	0.0	4798.0	211.0	-99564.0	732	-71.15644073486328	-2.7736830711364746	0.0	2144.0	2008.0	2580.0	178	176	178	188	1538231375183	both
1970-01-01 00:00:16.549	0.0	0.25	0.0	0.0	3	81	-69	17	-89	98478	528	0.07632312178611755	-61.00336456298828	0.0	0.0	5297.0	243.0	-99537.0	732	-111.95220947265624	2.2586679458618164	0.0	2096.0	2040.0	2584.0	184	174	181	182	1538245405303	both
1970-01-01 00:00:16.579	0.0	0.25	0.0	0.0	3	81	-68	16	-84	98505	528	0.07652905583381653	-60.769691467285156	0.0	0.0	5688.0	239.0	-99481.0	733	-139.33673095703122	6.545339584350586	0.0	2016.0	2064.0	2580.0	186	171	182	180	1538260435272	both
1970-01-01 00:00:16.645	0.0	0.25	0.0	0.0	3	81	-80	18	-88	98493	528	0.0731005147099495	-58.19239807128906	0.0	0.0	6396.0	323.0	-99486.0	735	-241.6656951904297	5.159881114959717	0.0	2096.0	2044.0	2580.0	181	176	179	183	1538292500823	both
1970-01-01 00:00:16.715	0.0	0.25	0.0	0.0	3	81	-69	21	-87	98490	528	0.07309471070766449	-57.27400207519531	0.0	0.0	6668.0	271.0	-99446.0	736	-319.8659362792969	11.572830200195312	0.0	2092.0	2044.0	2548.0	185	176	179	180	1538326571044	both
1970-01-01 00:00:16.840	0.0	0.25	0.0	0.0	3	80	-69	21	-89	98490	528	0.06737916171550751	-51.04059600830078	0.0	0.0	6674.0	218.0	-99337.0	737	-528.3467407226561	17.671459197998047	0.0	2152.0	2088.0	2560.0	191	178	177	175	1538387696136	both
1970-01-01 00:00:16.906	0.0	0.25	0.0	0.0	3	80	-72	18	-86	98466	528	0.06727565079927443	-50.20350646972656	0.0	0.0	6400.0	136.0	-99361.0	735	-591.2763061523438	17.099973678588867	0.0	2104.0	2104.0	2556.0	193	180	175	176	1538419761352	both
1970-01-01 00:00:16.966	0.0	0.25	0.0	0.0	3	80	-71	19	-85	98499	528	0.0646829679608345	-43.62812423706055	0.0	0.0	6252.0	133.0	-99377.0	733	-687.6638793945312	37.38240051269531	0.0	2120.0	2116.0	2588.0	192	183	174	177	1538449821624	both
1970-01-01 00:00:16.996	0.0	0.25	0.0	0.0	3	80	-71	23	-81	98469	528	0.0646606981754303	-42.09190368652344	0.0	0.0	6113.0	58.0	-99268.0	733	-734.6982421875	52.08672332763672	0.0	2072.0	2100.0	2596.0	196	180	175	174	1538463851654	both
1970-01-01 00:00:17.026	0.0	0.25	0.0	0.0	3	80	-71	19	-85	98493	528	0.06530532985925674	-42.10477066040039	0.0	0.0	6057.0	54.0	-99280.0	732	-769.2427978515625	52.44536209106445	0.0	2020.0	2072.0	2596.0	191	186	171	178	1538478881774	both
1970-01-01 00:00:17.061	0.0	0.25	0.0	0.0	3	80	-65	21	-85	98502	528	0.06533588469028473	-39.36765670776367	0.0	0.0	6001.0	-14.0	-99257.0	730	-796.4677734375	62.65956115722656	0.0	2076.0	2092.0	2592.0	193	184	172	178	1538495916809	both
1970-01-01 00:00:17.091	0.0	0.25	0.0	0.0	3	80	-74	18	-82	98478	528	0.06577927619218826	-38.88837432861328	0.0	0.0	5983.0	-14.0	-99274.0	730	-815.677490234375	56.5593147277832	0.0	2024.0	2116.0	2596.0	191	187	171	178	1538510947021	both
1970-01-01 00:00:17.156	0.0	0.25	0.0	0.0	3	80	-71	19	-83	98481	528	0.06680208444595337	-37.43693923950195	0.0	0.0	5893.0	64.0	-99284.0	731	-838.9156494140625	50.99291229248047	0.0	2064.0	2060.0	2584.0	196	183	175	171	1539077012084	both
1970-01-01 00:00:17.187	0.0	0.25	0.0	0.0	3	80	-66	24	-82	98508	528	0.06717034429311752	-37.148109436035156	0.0	0.0	5823.0	160.0	-99258.0	729	-852.3587646484375	54.26333236694336	0.0	2048.0	2080.0	2572.0	196	185	174	171	1539092042175	both
1970-01-01 00:00:17.221	0.0	0.25	0.0	0.0	3	80	-69	19	-83	98484	528	0.06800694763660431	-36.77052688598633	0.0	0.0	5789.0	262.0	-99262.0	730	-880.8269653320312	55.68503189086914	0.0	2068.0	1984.0	2596.0	194	186	174	171	1539109077239	both
1970-01-01 00:00:17.352	0.0	0.25	0.0	0.0	3	80	-67	19	-79	98478	528	0.06139754131436347	-21.416574478149414	0.0	0.0	5809.0	268.0	-99328.0	730	-1129.542724609375	19.553293228149414	0.0	2180.0	2036.0	2556.0	193	188	170	176	1539161183013	both
1970-01-01 00:00:17.382	0.0	0.25	0.0	0.0	3	80	-69	21	-87	98478	528	0.06090489029884338	-22.76494407653809	0.0	0.0	5891.0	236.0	-99363.0	731	-1123.5797119140623	9.664027214050293	0.0	2012.0	2056.0	2568.0	195	186	171	173	1539188237823	both
1970-01-01 00:00:17.413	0.0	0.25	0.0	0.0	3	80	-70	20	-84	98517	528	0.060714621096849435	-22.96552085876465	0.0	0.0	6014.0	223.0	-99364.0	731	-1131.6824951171875	0.7820754051208496	0.0	2052.0	2040.0	2552.0	195	184	173	172	1539202268096	both
1970-01-01 00:00:17.447	0.0	0.25	0.0	0.0	3	80	-69	19	-81	98502	528	0.06113222613930702	-23.972309112548828	0.0	0.0	6170.0	196.0	-99366.0	731	-1130.6295166015625	-7.297454833984375	0.0	2064.0	2064.0	2552.0	192	186	172	175	1539219303100	both
1970-01-01 00:00:17.477	0.0	0.25	0.0	0.0	3	80	-69	19	-83	98478	528	0.058374520391225815	-22.76016998291016	0.0	0.0	6381.0	221.0	-99406.0	731	-1152.5872802734375	-39.467247009277344	0.0	2096.0	2044.0	2552.0	191	187	170	177	1539234333007	both
1970-01-01 00:00:17.538	0.0	0.25	0.0	0.0	3	80	-73	21	-81	98508	528	0.05802953988313675	-24.0941104888916	0.0	0.0	6549.0	189.0	-99421.0	734	-1106.584716796875	-40.373779296875	0.0	2120.0	1996.0	2592.0	194	186	171	172	1539264393554	both
1970-01-01 00:00:17.603	0.0	0.25	0.0	0.0	3	80	-62	20	-86	98490	528	0.05829743668437004	-24.213685989379886	0.0	0.0	6692.0	155.0	-99421.0	736	-1139.2230224609375	20.515384674072266	0.0	2152.0	2040.0	2584.0	194	185	170	173	1539295458618	both
1970-01-01 00:00:17.664	0.0	0.25	0.0	0.0	3	80	-72	24	-78	98454	528	0.05830208584666253	-24.865821838378906	0.0	0.0	6768.0	142.0	-99432.0	737	-1178.1973876953125	34.375839233398445	0.0	2044.0	2004.0	2572.0	195	186	170	172	1539325518585	both
1970-01-01 00:00:17.698	0.0	0.25	0.0	0.0	3	80	-68	24	-88	98457	528	0.05860918015241622	-25.290267944335934	0.0	0.0	6816.0	50.0	-99467.0	738	-1191.0621337890625	33.85898208618164	0.0	2084.0	2096.0	2576.0	192	188	167	175	1539342553955	both
1970-01-01 00:00:18.768	0.0	0.25	0.0	0.0	3	80	-69	-1	-91	98481	528	0.06549635529518127	7.134699821472168	0.0	0.0	-1740.0	-1167.0	-99241.0	782	-441.98333740234375	35.33924102783203	0.0	2064.0	1976.0	2592.0	187	182	160	176	1540399621887	both
1970-01-01 00:00:18.801	0.0	0.25	0.0	0.0	3	80	-65	-5	-89	98466	527	0.06552284955978394	7.5156593322753915	0.0	0.0	-1062.0	-1155.0	-99312.0	783	-436.29766845703125	27.56936836242676	0.0	2104.0	2016.0	2584.0	190	183	158	173	1540416656982	both
1970-01-01 00:00:18.862	0.0	0.25	0.0	0.0	3	80	-63	-1	-91	98466	527	0.0640430822968483	1.9499567747116089	0.0	0.0	695.0	-876.0	-99305.0	782	-356.1615295410156	20.84305000305176	0.0	2056.0	1916.0	2560.0	191	179	168	168	1540446717651	both
1970-01-01 00:00:18.897	0.0	0.25	0.0	0.0	3	80	-69	1	-83	98493	528	0.06468376517295837	2.2424333095550537	0.0	0.0	1991.0	-754.0	-99358.0	781	-354.486328125	18.388383865356445	0.0	2012.0	1988.0	2568.0	188	181	166	174	1540463752410	both
1970-01-01 00:00:18.927	0.0	0.25	0.0	0.0	3	80	-69	13	-87	98476	527	0.06397029012441635	1.986851930618286	0.0	0.0	3189.0	-739.0	-99345.0	780	-350.0240783691406	15.200165748596193	0.0	2052.0	1964.0	2556.0	190	177	169	172	1540478782379	both
1970-01-01 00:00:18.992	0.0	0.25	0.0	0.0	3	80	-73	17	-89	98493	527	0.06443379074335097	1.4234081506729126	0.0	0.0	5748.0	-594.0	-99433.0	777	-380.1940002441406	1.6139397621154783	0.0	2016.0	2044.0	2560.0	188	178	170	179	1540509847503	both
1970-01-01 00:00:19.027	0.0	0.25	0.0	0.0	3	80	-67	13	-87	98490	528	0.06484723836183548	3.487562417984009	0.0	0.0	6983.0	-585.0	-99467.0	777	-431.01177978515625	0.23657628893852234	0.0	2012.0	2028.0	2556.0	188	178	172	178	1540526882568	both
1970-01-01 00:00:19.057	0.0	0.25	0.0	0.0	3	80	-68	18	-92	98466	527	0.06424020975828171	0.7781088948249817	0.0	0.0	7845.0	-580.0	-99473.0	776	-452.697021484375	0.9670141935348512	0.0	2008.0	2048.0	2564.0	190	177	173	178	1540541912841	both
1970-01-01 00:00:19.087	0.0	0.25	0.0	0.0	3	80	-65	21	-85	98508	527	0.06481123715639114	0.2366339862346649	0.0	0.0	8642.0	-602.0	-99463.0	775	-474.1883544921875	1.241203546524048	0.0	2008.0	2076.0	2568.0	190	176	176	178	1540556942749	both
1970-01-01 00:00:19.153	0.0	0.25	0.0	0.0	3	80	-70	28	-86	98490	527	0.06607157737016678	-0.3773469626903534	0.0	0.0	9908.0	-604.0	-99507.0	775	-558.778076171875	8.590598106384277	0.0	2012.0	2036.0	2572.0	188	180	172	181	1541123007904	both
1970-01-01 00:00:19.187	0.0	0.25	0.0	0.0	3	80	-65	25	-91	98466	527	0.06600023061037064	-0.9491143822669984	0.0	0.0	10314.0	-590.0	-99492.0	775	-597.274658203125	3.899364471435547	0.0	2072.0	2032.0	2564.0	190	179	173	179	1541141043090	both
1970-01-01 00:00:19.218	0.0	0.25	0.0	0.0	3	80	-69	25	-85	98487	527	0.06633191555738449	-1.2848879098892212	0.0	0.0	10510.0	-504.0	-99458.0	773	-628.25146484375	-0.8964645862579346	0.0	2044.0	2028.0	2584.0	192	180	174	178	1541155073242	both
1970-01-01 00:00:19.313	0.0	0.25	0.0	0.0	3	80	-69	27	-91	98478	527	0.06863722950220108	-0.05085112154483795	0.0	0.0	10187.0	-550.0	-99564.0	768	-762.8938598632812	7.409516334533691	0.0	2056.0	2064.0	2592.0	198	185	169	175	1541202168426	both
1970-01-01 00:00:19.343	0.0	0.25	0.0	0.0	3	80	-70	22	-86	98490	527	0.06960316002368927	-0.2309931069612503	0.0	0.0	9827.0	-599.0	-99513.0	769	-814.4159545898438	10.506583213806152	0.0	2068.0	2032.0	2576.0	207	178	173	165	1541217198791	both
1970-01-01 00:00:19.373	0.0	0.25	0.0	0.0	3	80	-67	27	-83	98454	527	0.07186444103717804	-0.38691604137420654	0.0	0.0	9403.0	-643.0	-99399.0	768	-851.3623046875	18.97393798828125	0.0	2116.0	1984.0	2580.0	206	181	170	166	1541231228881	both
1970-01-01 00:00:19.438	0.0	0.25	0.0	0.0	3	80	-63	29	-85	98454	527	0.0735502615571022	3.1180758476257324	0.0	0.0	8748.0	-1074.0	-99312.0	764	-954.8412475585938	22.72283935546875	0.0	2104.0	2104.0	2576.0	208	180	165	172	1541263293853	both
1970-01-01 00:00:19.474	0.0	0.25	0.0	0.0	3	80	-67	31	-87	98496	527	0.07357461005449295	3.1756775379180913	0.0	0.0	8727.0	-1118.0	-99317.0	763	-960.9869384765624	21.581830978393555	0.0	2080.0	2072.0	2572.0	206	182	165	173	1541265298797	both
1970-01-01 00:00:19.569	0.0	0.25	0.0	0.0	3	80	-67	23	-85	98476	527	0.07051981985569	1.1519690752029421	0.0	0.0	9115.0	-1738.0	-99264.0	757	-1031.812744140625	-39.98532485961914	0.0	2144.0	2116.0	2588.0	199	181	168	180	1541327424224	both
1970-01-01 00:00:19.631	0.0	0.25	0.0	0.0	3	80	-65	31	-83	98476	527	0.06844547390937805	1.956372857093811	0.0	0.0	9768.0	-1312.0	-99202.0	756	-1029.4129638671877	-49.15216445922852	0.0	2028.0	2084.0	2592.0	194	184	172	178	1541356484375	both
1970-01-01 00:00:19.666	0.0	0.25	0.0	0.0	3	80	-70	38	-84	98457	527	0.06890717893838882	1.4886854887008667	0.0	0.0	10152.0	-956.0	-99276.0	758	-1074.557373046875	-84.29413604736328	0.0	2136.0	2056.0	2604.0	191	184	170	179	1541373519561	both
1970-01-01 00:00:19.699	0.0	0.25	0.0	0.0	3	80	-70	26	-84	98490	527	0.06885729730129242	0.9693262577056884	0.0	0.0	10467.0	-677.0	-99297.0	760	-1109.148193359375	-98.37517547607422	0.0	2176.0	2020.0	2600.0	190	184	170	178	1541390554718	both
1970-01-01 00:00:19.729	0.0	0.25	0.0	0.0	3	80	-78	34	-80	98487	527	0.06937900185585022	0.7935859560966492	0.0	0.0	10703.0	-346.0	-99327.0	760	-1112.382568359375	-90.07181549072266	0.0	2152.0	2016.0	2588.0	188	185	172	178	1541405584655	both
1970-01-01 00:00:19.764	0.0	0.25	0.0	0.0	3	80	-74	32	-86	98484	527	0.07038737833499907	0.6065082550048828	0.0	0.0	10946.0	30.0	-99220.0	763	-1130.988525390625	-75.62208557128906	0.0	2112.0	2072.0	2576.0	196	176	179	169	1541422619903	both
1970-01-01 00:00:19.829	0.0	0.25	0.0	0.0	3	80	-68	38	-82	98481	527	0.07654578983783722	-12.321589469909668	0.0	0.0	10871.0	247.0	-99238.0	770	-1149.7745361328125	-9.16460132598877	0.0	2108.0	2052.0	2576.0	193	180	170	171	1541454684997	both
1970-01-01 00:00:19.860	0.0	0.25	0.0	0.0	3	80	-65	29	-81	98502	527	0.07625071704387665	-13.129083633422852	0.0	0.0	10750.0	275.0	-99217.0	774	-1154.3450927734375	-2.543242931365967	0.0	2060.0	2028.0	2584.0	195	177	172	166	1541469715179	both
1970-01-01 00:00:19.889	0.0	0.25	0.0	0.0	3	80	-68	32	-84	98473	527	0.07600601017475128	-15.150962829589846	0.0	0.0	10646.0	377.0	-99153.0	775	-1149.9259033203125	-8.301641464233397	0.0	2008.0	2008.0	2572.0	196	179	171	166	1541483745178	both
1970-01-01 00:00:21.078	0.0	-0.25	0.0	0.0	3	79	-84	0	-100	98481	527	0.10461828857660294	-30.47531700134277	0.0	0.0	-368.0	-31.0	-99569.0	767	-150.2279052734375	106.996337890625	0.0	2084.0	2028.0	2552.0	178	178	173	180	1542599933532	both
1970-01-01 00:00:21.173	0.0	-0.25	0.0	0.0	3	79	-70	-8	-98	98478	527	0.10618528723716736	-33.769115447998054	0.0	0.0	-2803.0	180.0	-99688.0	760	-75.84840393066406	96.15787506103516	0.0	2124.0	2028.0	2548.0	180	182	174	180	1543182028839	both
1970-01-01 00:00:21.203	0.0	-0.25	0.0	0.0	3	79	-72	-4	-94	98487	527	0.1067940592765808	-34.11541748046875	0.0	0.0	-3470.0	285.0	-99727.0	757	-8.259739875793457	100.80353546142578	0.0	2156.0	2068.0	2572.0	181	183	175	180	1543196058959	both
1970-01-01 00:00:21.234	0.0	-0.25	0.0	0.0	3	79	-76	-6	-98	98478	527	0.1088111326098442	-35.22817611694336	0.0	0.0	-4109.0	345.0	-99771.0	755	10.861734390258787	103.83268737792969	0.0	2132.0	2100.0	2580.0	180	185	173	181	1543211089141	both
1970-01-01 00:00:21.264	0.0	-0.25	0.0	0.0	3	79	-75	-9	-101	98476	527	0.1100141629576683	-35.92555618286133	0.0	0.0	-4603.0	400.0	-99808.0	753	34.813968658447266	109.72762298583984	0.0	2080.0	2096.0	2592.0	181	183	176	181	1543226119293	both
1970-01-01 00:00:21.294	0.0	-0.25	0.0	0.0	3	79	-74	-12	-96	98473	527	0.11096733063459396	-36.28955078125	0.0	0.0	-5013.0	386.0	-99803.0	752	57.18305969238281	115.91075134277344	0.0	2028.0	2076.0	2588.0	185	178	178	179	1543240149291	both
1970-01-01 00:00:21.329	0.0	-0.25	0.0	0.0	3	79	-74	-12	-98	98484	527	0.11148709058761597	-38.09987258911133	0.0	0.0	-5376.0	326.0	-99894.0	750	109.49907684326172	106.63115692138672	0.0	2100.0	2068.0	2580.0	179	183	173	186	1543258184417	both
1970-01-01 00:00:21.359	0.0	-0.25	0.0	0.0	3	79	-78	-14	-96	98505	527	0.1119239628314972	-37.8575439453125	0.0	0.0	-5610.0	280.0	-99940.0	749	129.82168579101562	109.2707748413086	0.0	2068.0	2076.0	2588.0	181	180	176	184	1543272214477	both
1970-01-01 00:00:21.420	0.0	-0.25	0.0	0.0	3	79	-70	-14	-100	98473	527	0.11447309702634813	-39.90913391113281	0.0	0.0	-6107.0	144.0	-100012.0	749	222.42481994628903	112.96763610839844	0.0	2016.0	2072.0	2564.0	180	179	175	184	1543302274902	both
1970-01-01 00:00:21.455	0.0	-0.25	0.0	0.0	3	79	-75	-17	-103	98478	527	0.11646153032779695	-40.667213439941406	0.0	0.0	-6300.0	26.0	-99941.0	748	271.68914794921875	118.74295043945312	0.0	2072.0	2064.0	2564.0	181	178	175	185	1543319309783	both
1970-01-01 00:00:21.490	0.0	-0.25	0.0	0.0	3	79	-78	-14	-96	98478	527	0.11709454655647278	-41.744056701660156	0.0	0.0	-6436.0	-142.0	-99970.0	747	318.5162658691406	111.78477478027344	0.0	2096.0	2020.0	2572.0	179	178	174	188	1543336344879	both
1970-01-01 00:00:21.521	0.0	-0.25	0.0	0.0	3	79	-68	-14	-100	98478	527	0.11798109114170074	-42.2696533203125	0.0	0.0	-6506.0	-279.0	-99974.0	747	359.766357421875	108.74030303955078	0.0	2092.0	2044.0	2556.0	180	177	174	188	1543351374938	both
1970-01-01 00:00:21.566	0.0	-0.25	0.0	0.0	3	79	-72	-18	-96	98481	527	0.12025399506092073	-43.63206100463867	0.0	0.0	-6536.0	-419.0	-99973.0	746	397.3416748046875	109.36869049072266	0.0	2060.0	2016.0	2584.0	182	175	176	187	1543360395233	both
1970-01-01 00:00:21.660	0.0	-0.25	0.0	0.0	3	79	-75	-21	-101	98467	527	0.12542520463466644	-48.43584442138672	0.0	0.0	-6501.0	-920.0	-99975.0	743	605.0507202148438	100.26297760009766	0.0	2060.0	2092.0	2552.0	179	175	175	192	1543419515472	both
1970-01-01 00:00:21.690	0.0	-0.25	0.0	0.0	3	79	-70	-16	-102	98490	527	0.12691405415534973	-49.90784072875977	0.0	0.0	-6466.0	-932.0	-99989.0	743	664.597900390625	86.23240661621094	0.0	2056.0	2096.0	2576.0	179	173	179	190	1543434545684	both
1970-01-01 00:00:21.720	0.0	-0.25	0.0	0.0	3	79	-72	-20	-100	98493	527	0.12879613041877747	-51.025367736816406	0.0	0.0	-6412.0	-892.0	-99977.0	742	720.5055541992188	75.83525848388672	0.0	2056.0	2080.0	2592.0	181	171	182	187	1543449575622	both
1970-01-01 00:00:21.821	0.0	-0.25	0.0	0.0	3	79	-67	-13	-97	98478	527	0.13293565809726715	-53.85011672973633	0.0	0.0	-6156.0	-558.0	-100027.0	741	847.1085815429688	61.31959533691406	0.0	1972.0	2052.0	2564.0	174	174	180	192	1543498676239	both
1970-01-01 00:00:21.852	0.0	-0.25	0.0	0.0	3	79	-74	-14	-98	98490	527	0.13310110569000244	-54.12840270996094	0.0	0.0	-6078.0	-487.0	-100004.0	740	868.193603515625	51.23771667480469	0.0	1988.0	2060.0	2564.0	175	171	183	191	1543512706024	both
1970-01-01 00:00:21.946	0.0	-0.25	0.0	0.0	3	79	-74	-14	-98	98502	527	0.13931740820407867	-57.17721939086914	0.0	0.0	-5666.0	-15.0	-99979.0	735	989.0897827148438	39.28756713867188	0.0	2008.0	2028.0	2568.0	174	173	186	192	1543559801330	both
1970-01-01 00:00:21.976	0.0	-0.25	0.0	0.0	3	79	-75	-19	-95	98484	527	0.13998252153396604	-57.64967346191406	0.0	0.0	-5620.0	63.0	-99982.0	734	1007.1692504882812	39.41923522949219	0.0	2068.0	2024.0	2560.0	174	172	186	192	1543573831298	both
1970-01-01 00:00:22.041	0.0	-0.25	0.0	0.0	3	79	-72	-20	-100	98493	527	0.14201997220516205	-58.4532356262207	0.0	0.0	-5606.0	170.0	-99952.0	729	1039.565185546875	44.76042175292969	0.0	2076.0	2016.0	2568.0	173	173	186	196	1543605896453	both
1970-01-01 00:00:22.071	0.0	-0.25	0.0	0.0	3	79	-74	-16	-98	98499	527	0.14351119101047516	-59.3734130859375	0.0	0.0	-5564.0	207.0	-99946.0	726	1066.193115234375	42.91435241699219	0.0	2076.0	2032.0	2564.0	173	173	189	195	1543620926696	both
1970-01-01 00:00:22.135	0.0	-0.25	0.0	0.0	3	79	-79	-13	-87	98496	527	0.1438041776418686	-59.28408432006836	0.0	0.0	-5536.0	267.0	-99858.0	722	1072.1650390625	47.97614288330078	0.0	1956.0	2048.0	2580.0	182	166	195	189	1543649987121	both
1970-01-01 00:00:22.167	0.0	-0.25	0.0	0.0	3	79	-72	-16	-94	98508	527	0.14542002975940704	-60.08547592163086	0.0	0.0	-5533.0	228.0	-99829.0	719	1101.071533203125	50.976951599121094	0.0	2040.0	2056.0	2564.0	177	170	192	194	1544202021911	both
1970-01-01 00:00:22.197	0.0	-0.25	0.0	0.0	3	79	-76	-14	-90	98478	527	0.14902491867542267	-61.450599670410156	0.0	0.0	-5510.0	221.0	-99815.0	717	1154.57373046875	49.54443740844727	0.0	1980.0	2064.0	2576.0	177	169	193	195	1544217052276	both
1970-01-01 00:00:22.228	0.0	-0.25	0.0	0.0	3	79	-74	-18	-94	98484	527	0.14884473383426666	-61.31858444213867	0.0	0.0	-5493.0	197.0	-99801.0	714	1216.200439453125	49.30806350708008	0.0	1960.0	2064.0	2584.0	175	170	192	197	1544232082061	both
1970-01-01 00:00:22.327	0.0	-0.25	0.0	0.0	3	79	-74	-14	-96	98493	527	0.15620195865631106	-62.59208679199219	0.0	0.0	-5492.0	140.0	-99780.0	712	1320.1546630859375	59.42349624633789	0.0	1956.0	2040.0	2596.0	174	170	191	197	1544281182708	both
1970-01-01 00:00:22.393	0.0	-0.25	0.0	0.0	3	79	-73	-15	-95	98470	527	0.155717670917511	-63.90351104736328	0.0	0.0	-5622.0	71.0	-99763.0	711	1304.864501953125	34.82511138916016	0.0	1952.0	2052.0	2580.0	175	169	190	197	1544313247985	both
1970-01-01 00:00:22.457	0.0	-0.25	0.0	0.0	3	79	-71	-17	-91	98464	527	0.15581732988357544	-64.37825775146484	0.0	0.0	-5875.0	100.0	-99780.0	712	1474.89208984375	24.06035041809082	0.0	1948.0	2028.0	2592.0	172	171	188	197	1544344312744	both
1970-01-01 00:00:23.773	0.0	-0.25	0.0	0.0	3	78	-69	11	-93	98487	527	0.17274509370326996	-73.26213073730469	0.0	0.0	434.0	605.0	-99690.0	742	103.61053466796876	-16.16667366027832	0.0	2088.0	2024.0	2572.0	176	166	193	189	1545521626464	both
1970-01-01 00:00:23.873	0.0	-0.25	0.0	0.0	3	77	-66	-2	-90	98496	526	0.1692451536655426	-72.57838439941406	0.0	0.0	-2008.0	460.0	-99687.0	739	82.2104721069336	-7.244511604309082	0.0	2044.0	2076.0	2572.0	180	173	185	187	1545570726989	both
1970-01-01 00:00:23.907	0.0	-0.25	0.0	0.0	3	77	-66	-2	-84	98499	526	0.1682008057832718	-72.21244049072266	0.0	0.0	-3500.0	407.0	-99673.0	740	87.205810546875	-1.2991580963134766	0.0	2076.0	2080.0	2580.0	180	176	180	186	1545588762084	both
1970-01-01 00:00:23.938	0.0	-0.25	0.0	0.0	3	77	-64	-8	-92	98470	526	0.16717226803302765	-72.57128143310547	0.0	0.0	-4793.0	376.0	-99647.0	740	92.01683044433594	-3.1671657562255864	0.0	2056.0	2080.0	2576.0	180	177	181	184	1545602792083	both
1970-01-01 00:00:23.972	0.0	-0.25	0.0	0.0	3	77	-68	-10	-90	98476	526	0.16584458947181702	-72.06073760986328	0.0	0.0	-6186.0	473.0	-99676.0	740	104.02508544921876	-0.5170083045959473	0.0	2068.0	2092.0	2568.0	178	183	177	185	1545619827117	both
1970-01-01 00:00:24.003	0.0	-0.25	0.0	0.0	3	77	-72	-12	-92	98496	526	0.16519764065742493	-71.57374572753906	0.0	0.0	-7284.0	474.0	-99686.0	741	125.02104949951172	8.751444816589355	0.0	2048.0	2084.0	2564.0	184	177	182	181	1545634857269	both
1970-01-01 00:00:24.093	0.0	-0.25	0.0	0.0	3	77	-68	-22	-88	98476	526	0.1630697101354599	-71.48797607421875	0.0	0.0	-9593.0	502.0	-99654.0	741	227.7124938964844	-0.6070482730865479	0.0	2032.0	1984.0	2596.0	180	183	176	189	1545678947631	both
1970-01-01 00:00:24.124	0.0	-0.25	0.0	0.0	3	77	-65	-21	-91	98478	526	0.16300976276397705	-71.51715850830078	0.0	0.0	-10134.0	467.0	-99685.0	740	279.7452392578125	-2.9891157150268555	0.0	2052.0	1980.0	2588.0	182	182	179	188	1545693977630	both
1970-01-01 00:00:24.158	0.0	-0.25	0.0	0.0	3	77	-66	-18	-90	98473	526	0.16107667982578278	-71.08304595947266	0.0	0.0	-10580.0	520.0	-99694.0	742	319.6235046386719	-1.9468746185302732	0.0	2028.0	2012.0	2584.0	180	182	180	187	1546246012786	both
1970-01-01 00:00:24.220	0.0	-0.25	0.0	0.0	3	77	-69	-25	-89	98490	526	0.16110160946846008	-70.34966278076172	0.0	0.0	-11019.0	428.0	-99561.0	744	407.70703125	13.340516090393065	0.0	2048.0	1968.0	2596.0	189	172	188	180	1546275072967	both
1970-01-01 00:00:24.285	0.0	-0.25	0.0	0.0	3	77	-65	-23	-93	98478	526	0.15845997631549835	-70.21973419189453	0.0	0.0	-10983.0	306.0	-99584.0	747	501.322021484375	8.702831268310549	0.0	2048.0	1972.0	2592.0	181	173	186	185	1546307138183	both
1970-01-01 00:00:24.318	0.0	-0.25	0.0	0.0	3	77	-67	-29	-89	98481	526	0.1584262251853943	-69.86981201171875	0.0	0.0	-10841.0	245.0	-99579.0	748	542.5640869140625	20.816415786743164	0.0	2004.0	2056.0	2576.0	183	170	187	186	1546324173248	both
1970-01-01 00:00:24.450	0.0	-0.25	0.0	0.0	3	77	-66	-22	-96	98481	526	0.15492430329322815	-69.37046813964844	0.0	0.0	-9861.0	59.0	-99528.0	751	712.2415161132812	24.44548797607422	0.0	1980.0	2076.0	2584.0	176	170	187	191	1546388303710	both
1970-01-01 00:00:24.609	0.0	-0.25	0.0	0.0	3	77	-66	-22	-90	98461	526	0.15873870253562927	-69.48014068603516	0.0	0.0	-8994.0	62.0	-99442.0	762	923.7615966796876	26.57026672363281	0.0	2040.0	2048.0	2564.0	173	165	187	190	1546466463897	both
1970-01-01 00:00:24.705	0.0	-0.25	0.0	0.0	3	77	-65	-19	-93	98487	526	0.15843281149864194	-69.22360992431639	0.0	0.0	-8834.0	-64.0	-99380.0	764	1008.0169067382812	35.7284049987793	0.0	2072.0	2052.0	2556.0	178	162	189	188	1546513559112	both
1970-01-01 00:00:24.834	0.0	-0.25	0.0	0.0	3	77	-68	-24	-88	98499	526	0.15752340853214264	-69.13832855224611	0.0	0.0	-8729.0	-200.0	-99418.0	764	1099.740234375	38.26887130737305	0.0	2056.0	2056.0	2572.0	174	163	190	191	1546576689819	both
1970-01-01 00:00:24.900	0.0	-0.25	0.0	0.0	3	77	-62	-24	-86	98487	526	0.1511758118867874	-68.07099914550781	0.0	0.0	-8702.0	-294.0	-99392.0	764	1087.8453369140623	25.3173885345459	0.0	2020.0	2036.0	2584.0	178	162	189	190	1546608754760	both
1970-01-01 00:00:25.062	0.0	-0.25	0.0	0.0	3	77	-67	-23	-87	98476	526	0.15833339095115662	-70.92664337158203	0.0	0.0	-8666.0	-235.0	-99553.0	766	1325.52587890625	-6.102185249328612	0.0	2044.0	2004.0	2564.0	172	167	185	197	1546686915435	both
1970-01-01 00:00:25.095	0.0	-0.25	0.0	0.0	3	77	-65	-27	-87	98499	526	0.1586918979883194	-71.3298568725586	0.0	0.0	-8711.0	-334.0	-99603.0	765	1371.350830078125	-20.835960388183594	0.0	2012.0	2004.0	2560.0	173	166	188	196	1546704950347	both
1970-01-01 00:00:25.125	0.0	-0.25	0.0	0.0	3	77	-69	-23	-89	98464	526	0.15718193352222445	-71.1906967163086	0.0	0.0	-8811.0	-465.0	-99635.0	765	1388.1646728515625	-22.008066177368164	0.0	2004.0	2032.0	2564.0	175	167	184	196	1546718980468	both
1970-01-01 00:00:25.193	0.0	-0.25	0.0	0.0	3	77	-66	-28	-86	98484	526	0.15266229212284088	-71.69251251220703	0.0	0.0	-9194.0	-725.0	-99686.0	763	1402.5517578125	-46.66448974609375	0.0	1944.0	2052.0	2564.0	175	171	182	197	1547286045806	both
1970-01-01 00:00:25.225	0.0	-0.25	0.0	0.0	3	77	-65	-29	-85	98473	526	0.14839322865009308	-71.24923706054688	0.0	0.0	-9417.0	-802.0	-99698.0	762	1386.3048095703125	-56.03115844726562	0.0	2036.0	2028.0	2576.0	176	169	183	197	1547303080841	both
1970-01-01 00:00:25.256	0.0	-0.25	0.0	0.0	3	77	-72	-24	-86	98449	526	0.1480109840631485	-71.27616882324219	0.0	0.0	-9583.0	-821.0	-99694.0	764	1398.3475341796875	-47.63018417358398	0.0	1976.0	2080.0	2576.0	178	169	184	193	1547318111328	both
1970-01-01 00:00:25.291	0.0	-0.25	0.0	0.0	3	77	-71	-27	-89	98473	526	0.147274449467659	-71.43953704833984	0.0	0.0	-9729.0	-782.0	-99704.0	764	1430.39404296875	-56.12194442749024	0.0	2072.0	2036.0	2556.0	176	169	185	194	1547335145996	both
1970-01-01 00:00:25.321	0.0	-0.25	0.0	0.0	3	77	-73	-31	-87	98493	526	0.14654041826725006	-71.54478454589844	0.0	0.0	-9775.0	-636.0	-99773.0	764	1453.5692138671875	-57.44366836547852	0.0	2028.0	2096.0	2556.0	171	173	182	198	1547350176147	both
1970-01-01 00:00:25.386	0.0	-0.25	0.0	0.0	3	77	-70	-32	-84	98487	526	0.14463165402412415	-71.40927124023438	0.0	0.0	-9749.0	-184.0	-99817.0	763	1532.50634765625	-50.26297378540039	0.0	1992.0	2068.0	2552.0	171	173	184	198	1547381241210	both
1970-01-01 00:00:26.615	0.0	0.25	0.0	0.0	3	77	-63	5	-89	98499	526	0.12080396711826324	-68.12691497802734	0.0	0.0	1576.0	-870.0	-99757.0	752	134.56434631347656	-26.22158050537109	0.0	2020.0	2088.0	2584.0	186	172	183	186	1548517469940	both
1970-01-01 00:00:26.710	0.0	0.25	0.0	0.0	3	77	-64	16	-84	98487	526	0.11727643758058548	-66.09071350097656	0.0	0.0	4131.0	-806.0	-99629.0	747	48.55118179321289	-30.721721649169922	0.0	1988.0	2104.0	2584.0	181	169	183	192	1548563565216	both
1970-01-01 00:00:26.740	0.0	0.25	0.0	0.0	3	77	-64	14	-88	98470	526	0.11586929857730865	-66.02954864501953	0.0	0.0	4896.0	-764.0	-99626.0	746	17.497282028198242	-43.51258087158203	0.0	1992.0	2072.0	2580.0	180	169	183	192	1548578595275	both
1970-01-01 00:00:26.771	0.0	0.25	0.0	0.0	3	77	-72	20	-84	98476	526	0.11473032087087633	-65.91311645507811	0.0	0.0	5522.0	-696.0	-99581.0	746	-13.063084602355955	-52.40448379516602	0.0	2012.0	2020.0	2576.0	181	168	184	189	1548593625457	both
1970-01-01 00:00:26.800	0.0	0.25	0.0	0.0	3	77	-69	25	-91	98481	526	0.11415571719408035	-65.55233001708984	0.0	0.0	6028.0	-640.0	-99558.0	745	-44.38789749145508	-51.43447494506836	0.0	2064.0	2000.0	2584.0	180	170	183	189	1548608655609	both
1970-01-01 00:00:26.831	0.0	0.25	0.0	0.0	3	77	-70	20	-88	98490	526	0.11263740062713624	-65.62758636474611	0.0	0.0	6465.0	-509.0	-99516.0	745	-81.1518325805664	-58.79026412963867	0.0	2108.0	2020.0	2564.0	182	168	187	185	1548622685668	both
1970-01-01 00:00:26.901	0.0	0.25	0.0	0.0	3	77	-69	25	-87	98505	526	0.10782522708177568	-63.518348693847656	0.0	0.0	7194.0	-255.0	-99446.0	751	-210.2779541015625	-63.59103775024414	0.0	2032.0	2044.0	2600.0	183	166	182	183	1548657755828	both
1970-01-01 00:00:26.930	0.0	0.25	0.0	0.0	3	77	-65	23	-81	98493	526	0.10646770894527437	-63.77698135375977	0.0	0.0	7387.0	-280.0	-99433.0	752	-255.33316040039062	-66.69312286376953	0.0	2072.0	2020.0	2576.0	179	169	180	187	1548671785736	both
1970-01-01 00:00:26.996	0.0	0.25	0.0	0.0	3	77	-63	23	-87	98487	526	0.10333409160375596	-63.10580825805664	0.0	0.0	7552.0	-419.0	-99399.0	754	-351.4715576171875	-72.77861785888672	0.0	2120.0	2072.0	2588.0	184	168	177	185	1548703851074	both
1970-01-01 00:00:27.026	0.0	0.25	0.0	0.0	3	77	-68	26	-86	98473	526	0.10058631002902983	-62.9166374206543	0.0	0.0	7495.0	-544.0	-99363.0	754	-407.9893493652344	-83.22607421875	0.0	2088.0	2052.0	2580.0	188	168	178	182	1548718881317	both
1970-01-01 00:00:27.057	0.0	0.25	0.0	0.0	3	77	-65	29	-89	98493	526	0.09840305894613266	-62.60860824584961	0.0	0.0	7368.0	-577.0	-99385.0	754	-456.23370361328125	-92.68968963623048	0.0	2032.0	1996.0	2580.0	184	174	173	184	1548732911285	both
1970-01-01 00:00:27.086	0.0	0.25	0.0	0.0	3	77	-73	21	-87	98476	526	0.09714850783348083	-61.84479522705078	0.0	0.0	7125.0	-620.0	-99365.0	756	-498.2326049804688	-92.1258316040039	0.0	2004.0	1952.0	2568.0	187	172	174	180	1548747941284	both
1970-01-01 00:00:27.151	0.0	0.25	0.0	0.0	3	77	-73	23	-85	98487	526	0.0936998575925827	-61.33120727539063	0.0	0.0	6672.0	-727.0	-99332.0	756	-581.509765625	-96.54484558105469	0.0	2016.0	1968.0	2576.0	188	174	171	181	1549315006378	both
1970-01-01 00:00:27.181	0.0	0.25	0.0	0.0	3	77	-66	20	-88	98496	526	0.0920962691307068	-61.99473190307617	0.0	0.0	6498.0	-726.0	-99311.0	757	-608.583740234375	-109.23347473144531	0.0	2048.0	1944.0	2560.0	188	174	173	177	1549329036499	both
1970-01-01 00:00:27.211	0.0	0.25	0.0	0.0	3	77	-70	20	-80	98467	526	0.088326096534729	-60.7203140258789	0.0	0.0	6306.0	-654.0	-99368.0	755	-653.5326538085938	-114.88803100585938	0.0	2120.0	1972.0	2564.0	187	179	170	180	1549344066528	both
1970-01-01 00:00:27.242	0.0	0.25	0.0	0.0	3	77	-71	21	-85	98493	526	0.08638209104537964	-60.35995483398438	0.0	0.0	6112.0	-560.0	-99384.0	752	-705.1148681640625	-122.51023864746094	0.0	2148.0	2032.0	2560.0	189	179	172	179	1549359096801	both
1970-01-01 00:00:27.272	0.0	0.25	0.0	0.0	3	77	-75	19	-83	98505	526	0.08487124741077423	-59.31036376953125	0.0	0.0	5912.0	-398.0	-99408.0	752	-742.2190551757812	-118.31340026855469	0.0	2136.0	2084.0	2576.0	188	182	171	178	1549373126770	both
1970-01-01 00:00:27.337	0.0	0.25	0.0	0.0	3	77	-69	15	-87	98458	526	0.07953429967164992	-58.96776962280274	0.0	0.0	5453.0	-38.0	-99509.0	751	-822.7948608398438	-138.40348815917972	0.0	2148.0	2064.0	2576.0	187	186	168	176	1549405191894	both
1970-01-01 00:00:27.367	0.0	0.25	0.0	0.0	3	77	-68	22	-88	98487	526	0.08017951250076294	-58.132240295410156	0.0	0.0	5272.0	204.0	-99552.0	750	-859.3178100585938	-129.8963623046875	0.0	2144.0	2072.0	2560.0	186	188	169	175	1549420222106	both
1970-01-01 00:00:27.427	0.0	0.25	0.0	0.0	3	77	-69	21	-85	98467	526	0.07562127709388733	-55.73876571655274	0.0	0.0	4995.0	621.0	-99728.0	748	-936.9566650390624	-130.44969177246094	0.0	2104.0	2024.0	2560.0	182	194	165	178	1549449282226	both
1970-01-01 00:00:27.457	0.0	0.25	0.0	0.0	3	77	-70	22	-84	98478	526	0.07597227394580841	-55.58505630493164	0.0	0.0	4916.0	833.0	-99743.0	747	-941.18408203125	-124.78084564208984	0.0	2064.0	2032.0	2568.0	190	186	173	170	1549464312347	both
1970-01-01 00:00:27.488	0.0	0.25	0.0	0.0	3	77	-73	19	-87	98476	526	0.0732717290520668	-53.7398681640625	0.0	0.0	4891.0	1083.0	-99772.0	743	-981.573974609375	-125.07904052734376	0.0	2036.0	2092.0	2592.0	188	192	174	171	1549479342529	both
1970-01-01 00:00:27.518	0.0	0.25	0.0	0.0	3	77	-74	24	-84	98481	526	0.0755467563867569	-53.09056854248047	0.0	0.0	4871.0	1349.0	-99805.0	741	-984.0458984375	-101.37060546875	0.0	2036.0	2144.0	2584.0	188	191	176	170	1549493372650	both
1970-01-01 00:00:27.553	0.0	0.25	0.0	0.0	3	77	-69	17	-85	98481	526	0.07676307111978531	-48.663368225097656	0.0	0.0	4926.0	1611.0	-99831.0	740	-1017.4834594726562	-47.73560333251953	0.0	2068.0	2024.0	2600.0	188	192	174	170	1549511407745	both
1970-01-01 00:00:27.582	0.0	0.25	0.0	0.0	3	77	-81	21	-81	98493	526	0.07583951950073242	-45.2547492980957	0.0	0.0	4944.0	1679.0	-99866.0	738	-1021.3104248046876	-10.722086906433104	0.0	2060.0	2064.0	2584.0	188	192	173	172	1549525437622	both
1970-01-01 00:00:27.613	0.0	0.25	0.0	0.0	3	77	-74	22	-82	98496	526	0.07613397389650345	-44.39240646362305	0.0	0.0	4915.0	1819.0	-99854.0	737	-989.205810546875	-15.415946006774902	0.0	2092.0	2100.0	2584.0	191	190	175	168	1549540467803	both
1970-01-01 00:00:27.678	0.0	0.25	0.0	0.0	3	77	-78	22	-82	98484	526	0.07779068499803543	-43.329010009765625	0.0	0.0	5158.0	1921.0	-99992.0	737	-1007.0845947265624	6.867460250854492	0.0	2076.0	1960.0	2568.0	191	187	176	169	1549572533294	both
1970-01-01 00:00:27.741	0.0	0.25	0.0	0.0	3	77	-73	19	-83	98473	526	0.07926195114850998	-42.25199890136719	0.0	0.0	5605.0	1836.0	-99949.0	736	-1133.9627685546875	7.3307247161865225	0.0	2068.0	1944.0	2580.0	193	183	177	170	1549601593261	both
1970-01-01 00:00:27.773	0.0	0.25	0.0	0.0	3	77	-71	21	-83	98470	526	0.07988912612199782	-41.912593841552734	0.0	0.0	5915.0	1586.0	-99901.0	737	-1240.452880859375	-10.273601531982422	0.0	2144.0	2020.0	2564.0	191	183	176	172	1549618628417	both
1970-01-01 00:00:27.804	0.0	0.25	0.0	0.0	3	77	-68	32	-80	98481	526	0.08033381402492523	-41.68610000610352	0.0	0.0	6105.0	1357.0	-99832.0	738	-1277.2554931640625	-7.8228111267089835	0.0	2092.0	1980.0	2572.0	192	183	173	172	1549633658782	both
1970-01-01 00:00:27.869	0.0	0.25	0.0	0.0	3	77	-72	26	-84	98476	526	0.08145713061094284	-41.68800735473633	0.0	0.0	6119.0	825.0	-99769.0	738	-1301.930419921875	-12.6821870803833	0.0	2136.0	2024.0	2560.0	197	183	172	168	1549665723876	both
1970-01-01 00:00:27.920	0.0	0.25	0.0	0.0	3	77	-70	28	-84	98481	526	0.08208854496479034	-41.65233612060547	0.0	0.0	6084.0	659.0	-99814.0	740	-1294.1529541015625	-30.7502555847168	0.0	2096.0	2036.0	2564.0	188	190	164	175	1549679753601	both
1970-01-01 00:00:27.953	0.0	0.25	0.0	0.0	3	77	-68	22	-82	98505	526	0.08296108990907669	-41.76937103271485	0.0	0.0	6171.0	463.0	-99785.0	743	-1227.2459716796875	-11.139572143554688	0.0	2100.0	1996.0	2556.0	190	186	167	172	1549706808685	both
1970-01-01 00:00:28.922	0.0	0.25	0.0	0.0	3	77	-68	-4	-94	98478	526	0.09151794761419296	-48.32286834716797	0.0	0.0	-4104.0	-917.0	-98756.0	784	-605.9678344726562	61.26742172241211	0.0	2080.0	2084.0	2568.0	196	186	152	163	1550715776733	both
1970-01-01 00:00:28.987	0.0	0.25	0.0	0.0	3	77	-66	-4	-88	98493	526	0.09164216369390488	-48.42515182495117	0.0	0.0	-715.0	-768.0	-98799.0	784	-571.416748046875	69.84825134277344	0.0	2116.0	2136.0	2540.0	188	178	164	168	1550747841888	both
1970-01-01 00:00:29.022	0.0	0.25	0.0	0.0	3	77	-68	6	-92	98499	526	0.09170246124267578	-48.45787811279297	0.0	0.0	1443.0	-744.0	-98823.0	784	-568.236328125	92.75807189941406	0.0	2064.0	2048.0	2552.0	189	173	168	170	1550764876861	both
1970-01-01 00:00:29.057	0.0	0.25	0.0	0.0	3	77	-65	9	-91	98490	526	0.07620451599359512	-10.336054801940918	0.0	0.0	3459.0	-763.0	-98909.0	786	-580.9910278320312	83.60104370117188	0.0	2060.0	2012.0	2564.0	181	178	163	178	1550781912048	both
1970-01-01 00:00:29.087	0.0	0.25	0.0	0.0	3	77	-63	15	-91	98467	526	0.07613832503557205	-6.145114421844482	0.0	0.0	4983.0	-822.0	-99017.0	788	-606.530029296875	72.8040542602539	0.0	2104.0	1996.0	2548.0	180	176	163	179	1550796942199	both
1970-01-01 00:00:29.117	0.0	0.25	0.0	0.0	3	77	-65	15	-85	98493	526	0.07511156052350998	-7.799668788909912	0.0	0.0	6319.0	-814.0	-99037.0	788	-589.1829223632812	58.24204635620117	0.0	2112.0	1988.0	2544.0	184	173	170	175	1550810972076	both
1970-01-01 00:00:29.147	0.0	0.25	0.0	0.0	3	77	-67	17	-83	98473	526	0.0765736922621727	-8.47883415222168	0.0	0.0	7380.0	-767.0	-99029.0	791	-596.0774536132812	61.5631332397461	0.0	2064.0	2020.0	2560.0	188	170	172	171	1551361002166	both
1970-01-01 00:00:29.178	0.0	0.25	0.0	0.0	3	77	-67	13	-87	98493	526	0.07361257821321487	-8.36170768737793	0.0	0.0	8243.0	-739.0	-99021.0	794	-612.427001953125	34.26840591430664	0.0	2012.0	2076.0	2568.0	189	169	173	169	1551376032989	both
1970-01-01 00:00:29.212	0.0	0.25	0.0	0.0	3	77	-71	21	-83	98487	526	0.07714804261922836	-8.025232315063478	0.0	0.0	9029.0	-757.0	-99032.0	793	-643.3342895507812	54.2525634765625	0.0	2088.0	2004.0	2552.0	189	171	172	172	1551392067382	both
1970-01-01 00:00:29.243	0.0	0.25	0.0	0.0	3	77	-69	25	-83	98484	526	0.07672435790300369	-8.865802764892578	0.0	0.0	9587.0	-765.0	-99112.0	793	-663.246826171875	47.66664505004883	0.0	2032.0	2060.0	2564.0	185	177	168	178	1551407097869	both
1970-01-01 00:00:29.277	0.0	0.25	0.0	0.0	3	77	-69	21	-87	98487	526	0.07739091664552689	-8.056584358215332	0.0	0.0	10047.0	-739.0	-99113.0	792	-706.7562866210938	47.87422180175781	0.0	2096.0	2028.0	2560.0	189	175	172	174	1551424132507	both
1970-01-01 00:00:29.308	0.0	0.25	0.0	0.0	3	77	-72	26	-86	98478	526	0.07797888666391373	-8.393708229064941	0.0	0.0	10282.0	-721.0	-99131.0	791	-742.0562133789062	50.50489807128906	0.0	2068.0	2064.0	2568.0	188	178	169	176	1551439162811	both
1970-01-01 00:00:29.338	0.0	0.25	0.0	0.0	3	77	-70	20	-84	98473	526	0.07858861237764359	-7.584202766418457	0.0	0.0	10461.0	-659.0	-99168.0	789	-777.1769409179688	50.76357650756836	0.0	2056.0	2068.0	2552.0	188	179	171	177	1551454192932	both
1970-01-01 00:00:29.404	0.0	0.25	0.0	0.0	3	77	-63	25	-83	98499	526	0.07978505641222	-7.015891075134277	0.0	0.0	10594.0	-517.0	-99197.0	785	-857.6695556640625	56.83908081054688	0.0	2084.0	2092.0	2540.0	193	180	174	173	1551486258239	both
1970-01-01 00:00:29.563	0.0	0.25	0.0	0.0	3	77	-68	34	-82	98473	526	0.08337634056806564	-2.6472110748291016	0.0	0.0	10065.0	-40.0	-99243.0	771	-1101.6192626953123	63.35210800170898	0.0	2108.0	2128.0	2544.0	191	190	167	177	1551564418548	both
1970-01-01 00:00:29.594	0.0	0.25	0.0	0.0	3	77	-69	31	-81	98461	526	0.08398710936307907	-3.863404750823975	0.0	0.0	10002.0	1.0	-99256.0	768	-1115.7327880859377	64.48822021484375	0.0	2116.0	2112.0	2568.0	196	185	173	173	1551578448486	both
1970-01-01 00:00:29.624	0.0	0.25	0.0	0.0	3	77	-68	32	-84	98473	526	0.08484452217817308	-4.236520767211913	0.0	0.0	9909.0	4.0	-99267.0	764	-1137.3311767578125	66.21477508544922	0.0	2072.0	2104.0	2584.0	196	187	172	175	1551593478485	both
1970-01-01 00:00:29.684	0.0	0.25	0.0	0.0	3	77	-64	28	-84	98473	526	0.08729321509599686	-5.480613231658936	0.0	0.0	9878.0	-21.0	-99198.0	758	-1178.915771484375	88.46839904785156	0.0	2028.0	2132.0	2588.0	200	183	174	173	1551623538848	both
1970-01-01 00:00:29.840	0.0	0.25	0.0	0.0	3	77	-65	25	-81	98518	526	0.08903936296701431	2.0216512680053706	0.0	0.0	9941.0	-253.0	-99088.0	745	-1467.89599609375	59.9649543762207	0.0	2104.0	1980.0	2564.0	202	182	177	172	1551699694335	both
1970-01-01 00:00:29.870	0.0	0.25	0.0	0.0	3	76	-70	38	-82	98481	526	0.08816670626401901	-0.9244053959846495	0.0	0.0	9918.0	-302.0	-99071.0	743	-1464.822998046875	54.81038284301758	0.0	2088.0	1936.0	2580.0	202	185	173	175	1551713724273	both
1970-01-01 00:00:29.935	0.0	0.25	0.0	0.0	3	76	-77	35	-81	98470	526	0.08931823819875717	-2.6412360668182373	0.0	0.0	9894.0	-266.0	-99037.0	740	-1437.2154541015625	45.47724533081055	0.0	2092.0	2052.0	2572.0	204	180	180	168	1551745789550	both
1970-01-01 00:00:29.970	0.0	0.25	0.0	0.0	3	76	-71	37	-89	98535	526	0.09204427152872086	-3.440796375274658	0.0	0.0	9948.0	-180.0	-99164.0	738	-1459.6602783203125	67.30088043212889	0.0	2120.0	2060.0	2560.0	193	191	170	179	1551762824707	both
1970-01-01 00:00:29.990	0.0	0.0	0.0	0.0	3	76	-72	32	-88	98464	526	0.09041348099708556	-2.7318100929260254	0.0	0.0	9933.0	-144.0	-99197.0	738	-1473.69482421875	72.38365173339844	0.0	2128.0	1988.0	2576.0	195	190	169	178	1551772844757	both
1970-01-01 00:00:31.376	0.0	-0.25	0.0	0.0	3	76	-75	9	-97	98470	525	0.10301274806261064	-34.23686981201172	0.0	0.0	602.0	-189.0	-99261.0	772	-191.07432556152344	18.512012481689453	0.0	1988.0	2040.0	2596.0	192	185	163	166	1553519228881	both
1970-01-01 00:00:31.409	0.0	-0.25	0.0	0.0	3	76	-69	1	-95	98452	525	0.104804664850235	-37.76591873168945	0.0	0.0	409.0	-310.0	-99305.0	771	-147.83030700683594	3.722926378250122	0.0	1988.0	2020.0	2600.0	186	178	169	173	1553536264007	both
1970-01-01 00:00:31.439	0.0	-0.25	0.0	0.0	3	76	-76	0	-102	98497	525	0.10492441803216934	-39.00508117675781	0.0	0.0	416.0	-358.0	-99302.0	770	-122.90876007080078	-5.2445945739746085	0.0	1968.0	2048.0	2584.0	185	173	176	174	1553551293884	both
1970-01-01 00:00:31.504	0.0	-0.25	0.0	0.0	3	76	-74	2	-94	98467	526	0.10604198276996613	-39.91619873046875	0.0	0.0	-151.0	-327.0	-99352.0	769	-98.97107696533205	-3.659184217453003	0.0	1972.0	2032.0	2580.0	182	175	173	177	1553583359161	both
1970-01-01 00:00:31.600	0.0	-0.25	0.0	0.0	3	76	-70	-4	-98	98490	525	0.10755481570959093	-43.46726608276367	0.0	0.0	-2628.0	-234.0	-99343.0	768	-28.85553932189941	-26.231111526489254	0.0	2020.0	2028.0	2572.0	185	176	173	173	1553629454345	both
1970-01-01 00:00:31.632	0.0	-0.25	0.0	0.0	3	76	-72	-8	-94	98467	525	0.10808675736188887	-44.03943252563477	0.0	0.0	-3486.0	-143.0	-99364.0	765	2.816993236541748	-28.59428787231445	0.0	2072.0	2044.0	2556.0	186	179	172	173	1553644484497	both
1970-01-01 00:00:31.661	0.0	-0.25	0.0	0.0	3	76	-77	-9	-95	98487	525	0.10905130207538603	-44.94159698486328	0.0	0.0	-4295.0	-102.0	-99408.0	767	29.72229766845703	-28.87829971313477	0.0	2100.0	2052.0	2572.0	184	179	170	174	1553659514831	both
1970-01-01 00:00:31.695	0.0	-0.25	0.0	0.0	3	76	-71	-11	-95	98484	525	0.10993099212646484	-45.843727111816406	0.0	0.0	-5077.0	-57.0	-99373.0	764	62.31878662109375	-29.6380558013916	0.0	2068.0	2000.0	2560.0	188	178	173	172	1553676549865	both
1970-01-01 00:00:31.730	0.0	-0.25	0.0	0.0	3	76	-76	-18	-96	98484	525	0.1107586994767189	-46.14532470703125	0.0	0.0	-5728.0	-20.0	-99364.0	765	101.15532684326172	-27.8106746673584	0.0	2056.0	2016.0	2564.0	187	177	173	172	1553693584869	both
1970-01-01 00:00:31.763	0.0	-0.25	0.0	0.0	3	76	-77	-7	-95	98487	525	0.112863689661026	-47.55382537841797	0.0	0.0	-6181.0	-45.0	-99367.0	764	149.27203369140625	-24.5980224609375	0.0	2080.0	1984.0	2552.0	186	177	172	175	1553708615051	both
1970-01-01 00:00:31.795	0.0	-0.25	0.0	0.0	3	76	-77	-11	-95	98487	525	0.11311013251543045	-48.88233947753906	0.0	0.0	-6546.0	-39.0	-99405.0	763	210.1260070800781	-34.200332641601555	0.0	2064.0	2056.0	2556.0	183	179	172	178	1553725649902	both
1970-01-01 00:00:31.831	0.0	-0.25	0.0	0.0	3	76	-74	-14	-96	98500	525	0.11519394814968108	-49.91231918334961	0.0	0.0	-6780.0	-58.0	-99432.0	765	269.70068359375	-35.23237991333008	0.0	2024.0	2136.0	2564.0	181	176	172	179	1553742685089	both
1970-01-01 00:00:31.860	0.0	-0.25	0.0	0.0	3	76	-74	-18	-102	98478	525	0.11572110652923585	-50.69672393798828	0.0	0.0	-6891.0	-36.0	-99396.0	764	318.64324951171875	-36.99226760864258	0.0	2052.0	2100.0	2560.0	183	174	177	176	1553757715148	both
1970-01-01 00:00:31.891	0.0	-0.25	0.0	0.0	3	76	-74	-18	-98	98476	525	0.11770504713058473	-51.85163497924805	0.0	0.0	-6905.0	55.0	-99368.0	764	370.4430236816406	-31.292110443115234	0.0	2072.0	2028.0	2556.0	181	174	177	176	1553771745391	both
1970-01-01 00:00:31.925	0.0	-0.25	0.0	0.0	3	76	-71	-15	-101	98494	525	0.1191781610250473	-53.06266403198242	0.0	0.0	-6827.0	24.0	-99365.0	763	437.4002685546875	-34.234664916992195	0.0	2028.0	2120.0	2556.0	180	174	177	179	1553788780242	both
1970-01-01 00:00:31.956	0.0	-0.25	0.0	0.0	3	76	-78	-22	-94	98490	526	0.11987952888011932	-54.37678146362305	0.0	0.0	-6747.0	12.0	-99391.0	762	487.8244934082031	-45.02898406982422	0.0	2044.0	2060.0	2556.0	178	175	177	181	1553803810394	both
1970-01-01 00:00:31.986	0.0	-0.25	0.0	0.0	3	76	-79	-21	-99	98470	525	0.12130548804998398	-55.05188751220703	0.0	0.0	-6599.0	59.0	-99420.0	762	528.8233642578125	-47.06555557250977	0.0	2064.0	2000.0	2572.0	179	172	180	180	1553818840454	both
1970-01-01 00:00:32.052	0.0	-0.25	0.0	0.0	3	76	-76	-18	-96	98484	525	0.12610886991024015	-56.33079147338867	0.0	0.0	-6328.0	44.0	-99408.0	764	629.1493530273438	-33.55843734741211	0.0	2060.0	2024.0	2560.0	177	168	180	181	1553850905853	both
1970-01-01 00:00:32.084	0.0	-0.25	0.0	0.0	3	76	-69	-15	-101	98484	525	0.12762099504470825	-56.75800323486328	0.0	0.0	-6187.0	57.0	-99426.0	763	665.7651977539062	-29.581378936767575	0.0	2096.0	1984.0	2568.0	175	170	179	184	1553864935760	both
1970-01-01 00:00:32.151	0.0	-0.25	0.0	0.0	3	76	-71	-15	-93	98484	525	0.12955403327941895	-58.30404663085938	0.0	0.0	-5962.0	143.0	-99451.0	760	736.9669799804688	-39.13921737670898	0.0	1976.0	2080.0	2568.0	175	170	183	183	1554434005950	both
1970-01-01 00:00:32.196	0.0	-0.25	0.0	0.0	3	76	-73	-21	-97	98473	525	0.13225536048412326	-59.261619567871094	0.0	0.0	-5901.0	198.0	-99434.0	760	773.0507202148438	-40.23019409179688	0.0	1976.0	2056.0	2568.0	177	168	186	181	1554444026367	both
1970-01-01 00:00:32.226	0.0	-0.25	0.0	0.0	3	76	-74	-14	-94	98476	525	0.1335533857345581	-59.63405990600586	0.0	0.0	-5708.0	434.0	-99475.0	756	822.6641845703125	-34.30121612548828	0.0	2116.0	2036.0	2556.0	172	172	185	186	1554471081085	both
1970-01-01 00:00:32.258	0.0	-0.25	0.0	0.0	3	76	-73	-17	-99	98473	525	0.1350230872631073	-60.66870498657226	0.0	0.0	-5601.0	586.0	-99512.0	755	858.239990234375	-32.75576019287109	0.0	2084.0	2040.0	2552.0	169	174	184	187	1554486111450	both
1970-01-01 00:00:32.322	0.0	-0.25	0.0	0.0	3	76	-73	-17	-93	98473	525	0.13738144934177401	-60.7530517578125	0.0	0.0	-5347.0	786.0	-99480.0	752	917.735107421875	-19.214902877807614	0.0	2072.0	2056.0	2556.0	172	169	187	186	1554518176452	both
1970-01-01 00:00:32.417	0.0	-0.25	0.0	0.0	3	76	-76	-14	-96	98497	525	0.14239731431007385	-61.77106475830078	0.0	0.0	-5212.0	781.0	-99577.0	743	971.1852416992188	1.658511519432068	0.0	2000.0	2080.0	2576.0	172	171	187	191	1554564271850	both
1970-01-01 00:00:32.448	0.0	-0.25	0.0	0.0	3	76	-74	-12	-94	98503	525	0.14329305291175842	-61.7314338684082	0.0	0.0	-5202.0	666.0	-99591.0	742	992.7630615234376	13.43939971923828	0.0	1992.0	2068.0	2596.0	172	170	187	191	1554579301788	both
1970-01-01 00:00:32.482	0.0	-0.25	0.0	0.0	3	76	-73	-15	-95	98487	525	0.14420972764492035	-62.479881286621094	0.0	0.0	-5127.0	479.0	-99657.0	739	1026.455322265625	14.14647102355957	0.0	1968.0	2088.0	2580.0	170	170	187	195	1554596336944	both
1970-01-01 00:00:32.514	0.0	-0.25	0.0	0.0	3	76	-71	-13	-101	98481	525	0.1430371105670929	-61.83434677124024	0.0	0.0	-5081.0	344.0	-99686.0	736	1010.3071899414062	17.426429748535153	0.0	1988.0	2064.0	2596.0	174	168	188	193	1554611366973	both
1970-01-01 00:00:32.547	0.0	-0.25	0.0	0.0	3	76	-73	-9	-97	98497	525	0.14149460196495056	-63.35619354248047	0.0	0.0	-5045.0	161.0	-99680.0	733	1049.2503662109377	-14.21022129058838	0.0	1960.0	2064.0	2572.0	178	163	194	189	1554628402038	both
1970-01-01 00:00:32.613	0.0	-0.25	0.0	0.0	3	76	-79	-15	-99	98467	525	0.14029164612293246	-63.48212814331055	0.0	0.0	-5092.0	-161.0	-99778.0	729	1188.9613037109375	-53.62366104125977	0.0	1984.0	2080.0	2572.0	171	170	186	198	1554660467437	both
1970-01-01 00:00:32.744	0.0	-0.25	0.0	0.0	3	76	-65	-13	-101	98478	525	0.13876907527446747	-63.74024963378906	0.0	0.0	-5589.0	-579.0	-99894.0	723	1221.9388427734375	-38.51104736328125	0.0	1948.0	2072.0	2592.0	174	169	186	196	1554723597747	both
1970-01-01 00:00:32.809	0.0	-0.25	0.0	0.0	3	76	-71	-17	-95	98478	525	0.1378149539232254	-63.82102966308594	0.0	0.0	-5858.0	-731.0	-99905.0	720	1387.5970458984375	-41.19222259521485	0.0	2024.0	2076.0	2592.0	177	167	188	195	1554755662841	both
1970-01-01 00:00:32.843	0.0	-0.25	0.0	0.0	3	76	-69	-17	-97	98487	525	0.16039741039276126	-70.98596954345703	0.0	0.0	-5973.0	-726.0	-99995.0	720	1450.730224609375	-51.78459548950195	0.0	1992.0	2084.0	2580.0	167	175	180	203	1554772698059	both
1970-01-01 00:00:32.875	0.0	-0.25	0.0	0.0	3	76	-68	-14	-92	98491	525	0.160902738571167	-71.34786224365234	0.0	0.0	-6165.0	-715.0	-100022.0	718	1456.0833740234375	-56.35986709594727	0.0	2036.0	2056.0	2584.0	172	173	183	200	1554787728057	both
1970-01-01 00:00:34.073	0.0	-0.25	0.0	0.0	3	76	-66	8	-90	98481	525	0.17270272970199585	-74.67137908935547	0.0	0.0	2122.0	651.0	-99339.0	725	98.20379638671876	-5.005385398864746	0.0	2096.0	2076.0	2568.0	182	166	193	189	1555908926483	both
1970-01-01 00:00:34.107	0.0	-0.25	0.0	0.0	3	76	-73	5	-85	98484	525	0.1721324771642685	-74.44572448730469	0.0	0.0	812.0	580.0	-99317.0	724	88.48261260986328	-2.678811550140381	0.0	2056.0	2016.0	2572.0	182	167	192	187	1555925961822	both
1970-01-01 00:00:34.172	0.0	-0.25	0.0	0.0	3	76	-71	-7	-89	98478	525	0.16996237635612488	-73.40191650390625	0.0	0.0	-2280.0	435.0	-99214.0	719	58.73491287231445	15.477642059326172	0.0	2084.0	2012.0	2596.0	188	170	188	183	1556493026885	both
1970-01-01 00:00:34.202	0.0	-0.25	0.0	0.0	3	76	-69	-1	-87	98481	525	0.17002175748348236	-73.60478210449219	0.0	0.0	-3732.0	368.0	-99162.0	716	72.30449676513672	13.62067985534668	0.0	2064.0	2024.0	2588.0	190	172	189	182	1556507056915	both
1970-01-01 00:00:34.233	0.0	-0.25	0.0	0.0	3	76	-68	-14	-86	98503	525	0.16797862946987152	-73.36442565917969	0.0	0.0	-5068.0	405.0	-99100.0	716	77.31617736816406	10.534337997436523	0.0	2036.0	2044.0	2580.0	190	172	191	178	1556522086914	both
1970-01-01 00:00:34.267	0.0	-0.25	0.0	0.0	3	76	-68	-14	-88	98500	525	0.16780035197734833	-72.75037384033203	0.0	0.0	-6542.0	420.0	-99011.0	713	95.7014389038086	21.053171157836914	0.0	2096.0	2044.0	2596.0	195	172	190	177	1556539122161	both
1970-01-01 00:00:34.298	0.0	-0.25	0.0	0.0	3	76	-74	-14	-84	98491	525	0.16749057173728946	-72.6082992553711	0.0	0.0	-7616.0	403.0	-98995.0	712	123.70768737792969	24.10718536376953	0.0	2080.0	2044.0	2588.0	191	176	188	181	1556554152313	both
1970-01-01 00:00:34.337	0.0	-0.25	0.0	0.0	3	76	-69	-15	-87	98467	525	0.16684508323669436	-72.5390396118164	0.0	0.0	-8076.0	432.0	-98984.0	712	137.69825744628906	25.64579772949219	0.0	2076.0	2036.0	2592.0	190	177	189	180	1556561167358	both
1970-01-01 00:00:34.433	0.0	-0.25	0.0	0.0	3	76	-68	-24	-90	98491	525	0.16464340686798096	-71.07013702392578	0.0	0.0	-10481.0	298.0	-98777.0	717	286.9838562011719	49.4716796875	0.0	2088.0	1992.0	2600.0	189	173	187	183	1556620287567	both
1970-01-01 00:00:34.499	0.0	-0.25	0.0	0.0	3	76	-72	-22	-88	98494	525	0.1634463220834732	-70.7493667602539	0.0	0.0	-10926.0	199.0	-98733.0	724	371.6218566894531	44.89476013183594	0.0	2140.0	2004.0	2588.0	184	172	186	183	1556652352935	both
1970-01-01 00:00:34.533	0.0	-0.25	0.0	0.0	3	76	-73	-25	-83	98494	525	0.16241593658924106	-69.98261260986328	0.0	0.0	-11056.0	148.0	-98680.0	726	404.0708923339844	53.35595703125	0.0	2088.0	2056.0	2568.0	189	167	190	179	1556669387817	both
1970-01-01 00:00:34.628	0.0	-0.25	0.0	0.0	3	76	-68	-26	-88	98487	525	0.16251933574676514	-69.84281921386719	0.0	0.0	-10918.0	232.0	-98680.0	734	546.6904907226561	51.06468963623047	0.0	2048.0	2024.0	2568.0	181	169	189	183	1556713478179	both
1970-01-01 00:00:34.659	0.0	-0.25	0.0	0.0	3	76	-71	-23	-89	98470	525	0.16477759182453156	-70.00972747802734	0.0	0.0	-10758.0	220.0	-98651.0	737	621.3335571289062	56.42855453491211	0.0	2060.0	2100.0	2572.0	182	166	190	182	1556730513641	both
1970-01-01 00:00:34.692	0.0	-0.25	0.0	0.0	3	76	-69	-29	-91	98476	525	0.16640879213809967	-70.00666046142578	0.0	0.0	-10578.0	146.0	-98606.0	739	688.7380981445312	58.48544692993164	0.0	2024.0	2036.0	2580.0	183	163	191	182	1556745543334	both
1970-01-01 00:00:34.724	0.0	-0.25	0.0	0.0	3	76	-71	-23	-91	98491	525	0.16749250888824466	-70.8060302734375	0.0	0.0	-10344.0	50.0	-98608.0	740	766.90966796875	43.49631118774414	0.0	2040.0	2104.0	2580.0	181	165	191	184	1556762578369	both
1970-01-01 00:00:34.758	0.0	-0.25	0.0	0.0	3	76	-75	-25	-85	98478	525	0.16878962516784668	-70.74049377441406	0.0	0.0	-10172.0	32.0	-98583.0	745	822.7716064453125	41.71638870239258	0.0	2012.0	2052.0	2600.0	181	162	192	180	1556777608459	both
1970-01-01 00:00:34.850	0.0	-0.25	0.0	0.0	3	76	-69	-25	-83	98461	525	0.16833458840847015	-69.97594451904297	0.0	0.0	-9597.0	55.0	-98564.0	751	920.0191650390624	51.41419219970703	0.0	2112.0	2064.0	2580.0	178	163	191	184	1556823704376	both
1970-01-01 00:00:34.882	0.0	-0.25	0.0	0.0	3	76	-69	-21	-89	98491	525	0.1709909737110138	-69.85610961914061	0.0	0.0	-9511.0	67.0	-98543.0	755	962.0772705078124	63.15033721923828	0.0	2100.0	2036.0	2576.0	180	160	190	182	1556838733978	both
1970-01-01 00:00:34.913	0.0	-0.25	0.0	0.0	3	76	-67	-23	-95	98488	525	0.1695917695760727	-69.48429870605469	0.0	0.0	-9464.0	86.0	-98569.0	759	981.6062622070312	73.89410400390625	0.0	2024.0	2008.0	2576.0	175	163	187	184	1556853764068	both
1970-01-01 00:00:34.973	0.0	-0.25	0.0	0.0	3	76	-69	-29	-91	98458	525	0.1698361337184906	-69.28215026855469	0.0	0.0	-9386.0	207.0	-98556.0	763	1040.1070556640623	76.67328643798828	0.0	1972.0	2016.0	2572.0	180	157	195	177	1556882824188	both
1970-01-01 00:00:35.075	0.0	-0.25	0.0	0.0	3	76	-75	-27	-87	98467	525	0.16749824583530426	-70.12063598632811	0.0	0.0	-9003.0	266.0	-98716.0	764	1104.271484375	32.976791381835945	0.0	2016.0	2064.0	2568.0	174	161	193	187	1556933929534	both
1970-01-01 00:00:35.170	0.0	-0.25	0.0	0.0	3	76	-72	-28	-88	98491	525	0.16500112414360046	-68.59715270996094	0.0	0.0	-8720.0	108.0	-98871.0	764	1134.1187744140625	59.90936660766602	0.0	2072.0	2024.0	2560.0	172	166	188	192	1557516024749	both
1970-01-01 00:00:35.201	0.0	-0.25	0.0	0.0	3	76	-69	-21	-87	98494	525	0.16460266709327698	-68.34745788574219	0.0	0.0	-8758.0	118.0	-98884.0	765	1145.7872314453125	61.25565719604492	0.0	2040.0	2044.0	2564.0	174	165	189	189	1557530054809	both
1970-01-01 00:00:35.235	0.0	-0.25	0.0	0.0	3	76	-69	-27	-83	98509	525	0.16430987417697904	-68.16256713867189	0.0	0.0	-8878.0	72.0	-98940.0	767	1222.658447265625	67.99116516113281	0.0	2052.0	2024.0	2552.0	173	165	188	189	1557547089935	both
1970-01-01 00:00:35.326	0.0	-0.25	0.0	0.0	3	76	-67	-25	-87	98485	525	0.17182886600494385	-70.29460906982422	0.0	0.0	-9334.0	171.0	-99151.0	768	1395.1109619140625	52.01528549194336	0.0	1980.0	2056.0	2560.0	172	169	185	191	1557591180206	both
1970-01-01 00:00:35.357	0.0	-0.25	0.0	0.0	3	76	-71	-29	-85	98478	525	0.171954944729805	-70.20573425292969	0.0	0.0	-9403.0	183.0	-99213.0	769	1387.0364990234375	46.440208435058594	0.0	2040.0	2044.0	2556.0	170	171	184	191	1557606210235	both
1970-01-01 00:00:35.423	0.0	-0.25	0.0	0.0	3	76	-74	-28	-82	98484	525	0.1684846729040146	-68.80963897705078	0.0	0.0	-9600.0	285.0	-99401.0	770	1423.9954833984375	79.3270492553711	0.0	2040.0	2024.0	2560.0	167	173	182	194	1557638275665	both
1970-01-01 00:00:35.456	0.0	-0.25	0.0	0.0	3	76	-71	-33	-81	98470	525	0.16846895217895508	-68.27008056640625	0.0	0.0	-9623.0	274.0	-99487.0	769	1436.723876953125	95.1954345703125	0.0	2008.0	2020.0	2560.0	169	171	184	195	1557655310546	both
1970-01-01 00:00:35.491	0.0	-0.25	0.0	0.0	3	76	-70	-34	-84	98481	525	0.16776710748672485	-68.09465026855469	0.0	0.0	-9613.0	236.0	-99605.0	769	1440.5511474609375	108.62688446044922	0.0	1968.0	2052.0	2568.0	166	175	180	198	1557672345642	both
1970-01-01 00:00:35.523	0.0	-0.25	0.0	0.0	3	76	-75	-29	-87	98503	525	0.1675291210412979	-67.95890045166016	0.0	0.0	-9616.0	151.0	-99711.0	769	1492.2647705078125	94.8883819580078	0.0	2020.0	2008.0	2556.0	166	174	179	199	1557687375762	both
1970-01-01 00:00:36.449	0.0	0.25	0.0	0.0	8	75	-70	18	-84	98497	525	0.15212923288345334	-69.50657653808594	0.0	0.0	6210.0	1535.0	-100160.0	771	377.69659423828125	6.826890468597412	0.0	2004.0	1992.0	2568.0	164	175	181	193	1558676303497	both
1970-01-01 00:00:36.479	0.0	0.25	0.0	0.0	3	75	-73	13	-81	98452	525	0.15166844427585602	-69.35795593261719	0.0	0.0	5185.0	1752.0	-100178.0	767	336.15771484375	6.64579963684082	0.0	2016.0	2040.0	2560.0	171	179	183	185	1558690333648	both
1970-01-01 00:00:36.510	0.0	0.25	0.0	0.0	3	75	-77	15	-81	98470	525	0.15163499116897586	-69.09436798095703	0.0	0.0	4353.0	2007.0	-100165.0	761	331.56341552734375	15.467336654663086	0.0	2060.0	2092.0	2568.0	177	180	186	181	1558705363922	both
1970-01-01 00:00:36.575	0.0	0.25	0.0	0.0	3	75	-75	13	-81	98491	525	0.14173351228237152	-66.80014038085939	0.0	0.0	3503.0	2028.0	-100070.0	754	207.99639892578125	44.0272216796875	0.0	2016.0	2084.0	2572.0	180	179	185	180	1558737429046	both
1970-01-01 00:00:36.637	0.0	0.25	0.0	0.0	3	75	-72	12	-84	98494	525	0.13885560631752014	-64.76396179199219	0.0	0.0	3813.0	1862.0	-100027.0	747	108.71576690673828	56.021339416503906	0.0	2100.0	2092.0	2560.0	177	180	182	188	1558766488952	both
1970-01-01 00:00:36.670	0.0	0.25	0.0	0.0	3	75	-75	15	-81	98458	525	0.136446014046669	-63.550331115722656	0.0	0.0	4349.0	1711.0	-99946.0	743	58.43301391601562	66.82144165039061	0.0	2032.0	2092.0	2584.0	180	177	187	185	1558784524322	both
1970-01-01 00:00:36.700	0.0	0.25	0.0	0.0	3	75	-68	14	-80	98449	525	0.13611726462841034	-62.7739486694336	0.0	0.0	4797.0	1606.0	-99873.0	740	23.65403175354004	83.5627670288086	0.0	2068.0	2088.0	2584.0	181	177	187	185	1558798554107	both
1970-01-01 00:00:36.766	0.0	0.25	0.0	0.0	3	75	-70	10	-88	98473	525	0.13342438638210294	-61.26021957397461	0.0	0.0	5851.0	1276.0	-99741.0	734	-57.98308563232422	102.29418182373048	0.0	2036.0	2080.0	2584.0	180	177	186	188	1558830619323	both
1970-01-01 00:00:36.830	0.0	0.25	0.0	0.0	3	75	-78	22	-82	98509	525	0.131179079413414	-60.17963027954102	0.0	0.0	6552.0	920.0	-99706.0	730	-139.00814819335938	112.65821075439452	0.0	2080.0	2076.0	2608.0	182	177	186	186	1558862684661	both
1970-01-01 00:00:36.925	0.0	0.25	0.0	0.0	3	75	-65	19	-85	98488	525	0.12705250084400174	-57.86355209350586	0.0	0.0	6978.0	589.0	-99638.0	727	-290.3391418457031	114.1417007446289	0.0	2116.0	2084.0	2604.0	183	179	181	185	1558908779724	both
1970-01-01 00:00:36.986	0.0	0.25	0.0	0.0	3	75	-71	21	-83	98464	525	0.1231239289045334	-56.519996643066406	0.0	0.0	7028.0	518.0	-99688.0	729	-384.9251708984375	103.48446655273438	0.0	2040.0	2048.0	2584.0	179	182	178	185	1558938839996	both
1970-01-01 00:00:37.021	0.0	0.25	0.0	0.0	3	75	-68	24	-84	98476	525	0.1216008961200714	-55.30413818359375	0.0	0.0	6956.0	503.0	-99693.0	729	-447.4945068359375	107.96221923828124	0.0	2136.0	2092.0	2592.0	183	181	178	181	1558955875091	both
1970-01-01 00:00:37.181	0.0	0.25	0.0	0.0	3	75	-68	22	-84	98478	525	0.11789089441299437	-49.90068817138672	0.0	0.0	6036.0	277.0	-99709.0	726	-649.249267578125	131.96672058105472	0.0	2116.0	2080.0	2596.0	184	185	174	180	1559569035461	both
1970-01-01 00:00:37.369	0.0	0.25	0.0	0.0	3	75	-69	17	-85	98497	525	0.1094738319516182	-40.41714859008789	0.0	0.0	5612.0	-217.0	-99677.0	724	-951.7063598632812	143.26426696777344	0.0	2044.0	2140.0	2556.0	188	187	168	181	1559659221008	both
1970-01-01 00:00:37.402	0.0	0.25	0.0	0.0	3	75	-72	20	-84	98461	525	0.10905687510967256	-40.16262817382813	0.0	0.0	5586.0	-376.0	-99671.0	725	-970.3804931640624	132.56988525390622	0.0	1992.0	2052.0	2584.0	192	184	169	178	1559677256042	both
1970-01-01 00:00:37.432	0.0	0.25	0.0	0.0	3	75	-63	21	-83	98488	525	0.10810355842113496	-38.63999938964844	0.0	0.0	5575.0	-505.0	-99700.0	724	-1001.785888671875	131.6337890625	0.0	2028.0	2080.0	2556.0	190	185	168	181	1559691286315	both
1970-01-01 00:00:37.527	0.0	0.25	0.0	0.0	3	75	-69	25	-83	98485	525	0.1031307652592659	-34.457542419433594	0.0	0.0	5674.0	-727.0	-99715.0	726	-1118.6839599609377	97.37897491455078	0.0	2104.0	2020.0	2548.0	189	187	166	180	1559738381469	both
1970-01-01 00:00:37.558	0.0	0.25	0.0	0.0	3	75	-67	25	-85	98503	525	0.10290456563234328	-34.24419403076172	0.0	0.0	5723.0	-715.0	-99727.0	727	-1126.8974609375	89.8709487915039	0.0	2144.0	2076.0	2564.0	190	186	168	178	1559753411743	both
1970-01-01 00:00:37.592	0.0	0.25	0.0	0.0	3	75	-69	17	-87	98482	525	0.10302621126174928	-32.839473724365234	0.0	0.0	5721.0	-618.0	-99779.0	728	-1182.322998046875	88.93282318115234	0.0	2104.0	1968.0	2548.0	186	191	164	179	1559770446777	both
1970-01-01 00:00:37.623	0.0	0.25	0.0	0.0	3	75	-68	28	-86	98491	525	0.10366094857454301	-31.06675720214844	0.0	0.0	5693.0	-545.0	-99828.0	729	-1198.8740234375	96.37301635742188	0.0	2136.0	1992.0	2572.0	186	191	163	180	1559784476837	both
1970-01-01 00:00:37.688	0.0	0.25	0.0	0.0	3	75	-66	16	-80	98452	525	0.1053864061832428	-32.1156005859375	0.0	0.0	5663.0	-491.0	-99693.0	732	-1160.5821533203125	129.99354553222656	0.0	2104.0	1960.0	2592.0	194	183	170	170	1559814537078	both
1970-01-01 00:00:37.758	0.0	0.25	0.0	0.0	3	75	-67	23	-81	98512	525	0.1064857542514801	-31.42403221130371	0.0	0.0	5803.0	-480.0	-99772.0	734	-1223.5811767578125	158.30694580078125	0.0	2104.0	2020.0	2568.0	185	193	159	182	1559850612243	both
1970-01-01 00:00:37.823	0.0	0.25	0.0	0.0	3	75	-67	21	-81	98467	525	0.10713375359773636	-31.095399856567386	0.0	0.0	6007.0	-306.0	-99887.0	735	-1241.80419921875	134.57646179199222	0.0	2104.0	1964.0	2584.0	183	195	160	181	1559882677368	both
1970-01-01 00:00:37.919	0.0	0.25	0.0	0.0	3	74	-67	21	-85	98494	525	0.10899309068918228	-30.99103546142578	0.0	0.0	6159.0	-45.0	-100073.0	737	-1263.4267578125	124.11878967285156	0.0	2072.0	2016.0	2572.0	184	194	161	179	1559929772583	both
1970-01-01 00:00:38.906	0.0	0.25	0.0	0.0	3	74	-67	-23	-89	98470	525	0.11576268076896667	-9.773351669311523	0.0	0.0	-6241.0	-331.0	-99289.0	787	-195.5292205810547	37.70378112792969	0.0	2028.0	2000.0	2556.0	190	185	163	165	1560947760375	both
1970-01-01 00:00:38.936	0.0	0.25	0.0	0.0	3	74	-67	-17	-79	98503	525	0.11639490723609924	-10.147579193115234	0.0	0.0	-4667.0	-166.0	-99346.0	787	-163.89581298828125	40.38811874389648	0.0	2060.0	2004.0	2536.0	184	186	164	169	1560961790435	both
1970-01-01 00:00:38.966	0.0	0.25	0.0	0.0	3	74	-66	-10	-82	98440	524	0.11752072721719742	-10.724787712097168	0.0	0.0	-3001.0	-108.0	-99334.0	783	-139.51927185058594	45.1192741394043	0.0	2084.0	2020.0	2544.0	189	181	168	168	1560976820495	both
1970-01-01 00:00:38.997	0.0	0.25	0.0	0.0	3	74	-62	-8	-88	98515	524	0.1166584938764572	-9.880898475646973	0.0	0.0	-1165.0	-5.0	-99309.0	780	-137.73443603515622	34.13241195678711	0.0	2040.0	2004.0	2596.0	187	179	174	170	1560991850799	both
1970-01-01 00:00:39.031	0.0	0.25	0.0	0.0	3	74	-64	4	-88	98485	524	0.11678774654865265	-11.368745803833008	0.0	0.0	694.0	40.0	-99283.0	779	-114.36547088623048	32.79825210571289	0.0	1964.0	1996.0	2588.0	187	175	177	171	1561006880676	both
1970-01-01 00:00:39.062	0.0	0.25	0.0	0.0	3	74	-65	9	-87	98455	525	0.11640623956918715	-11.302495956420898	0.0	0.0	2757.0	110.0	-99316.0	778	-114.39752197265624	26.293743133544922	0.0	2024.0	1980.0	2592.0	182	177	176	176	1561023915740	both
1970-01-01 00:00:39.127	0.0	0.25	0.0	0.0	3	74	-66	12	-84	98509	525	0.11617530137300493	-12.100435256958008	0.0	0.0	6142.0	303.0	-99278.0	772	-130.81759643554688	19.863784790039066	0.0	2056.0	2004.0	2592.0	185	175	182	176	1561054980987	both
1970-01-01 00:00:39.158	0.0	0.25	0.0	0.0	3	74	-64	14	-90	98473	524	0.1168730929493904	-11.604300498962402	0.0	0.0	7409.0	384.0	-99263.0	772	-165.20779418945312	26.64628601074219	0.0	1996.0	1980.0	2584.0	185	174	182	176	1561605011444	both
1970-01-01 00:00:39.224	0.0	0.25	0.0	0.0	3	74	-61	19	-83	98485	525	0.11616893112659454	-11.63314151763916	0.0	0.0	9434.0	389.0	-99196.0	769	-246.6256561279297	28.18707656860352	0.0	2024.0	1992.0	2584.0	184	178	179	180	1561637076171	both
1970-01-01 00:00:39.292	0.0	0.25	0.0	0.0	3	74	-67	25	-81	98488	524	0.11575641483068465	-12.156237602233887	0.0	0.0	10689.0	417.0	-99177.0	766	-325.1523742675781	25.55483055114746	0.0	2076.0	2096.0	2564.0	187	178	183	178	1561671146392	both
1970-01-01 00:00:39.323	0.0	0.25	0.0	0.0	3	74	-64	26	-82	98479	524	0.11728895455598833	-12.19702434539795	0.0	0.0	11009.0	413.0	-99167.0	764	-364.1144104003906	37.25619125366211	0.0	2052.0	2084.0	2560.0	188	179	182	179	1561686176544	both
1970-01-01 00:00:39.448	0.0	0.25	0.0	0.0	3	74	-68	26	-82	98473	524	0.11808961629867555	-12.017550468444824	0.0	0.0	11364.0	118.0	-98993.0	757	-549.8477783203125	44.71374893188477	0.0	1996.0	2076.0	2572.0	195	180	180	176	1561747302093	both
1970-01-01 00:00:39.479	0.0	0.25	0.0	0.0	3	74	-66	28	-84	98467	524	0.11773186177015305	-12.717857360839846	0.0	0.0	11189.0	50.0	-98949.0	757	-584.7177734375	43.32122421264648	0.0	2020.0	2072.0	2572.0	197	178	182	172	1561762332214	both
1970-01-01 00:00:39.544	0.0	0.25	0.0	0.0	3	74	-64	22	-82	98485	524	0.1192830726504326	-12.426270484924315	0.0	0.0	10709.0	-42.0	-98922.0	752	-665.9339599609375	48.90385437011719	0.0	2056.0	2028.0	2564.0	197	183	178	173	1561794397369	both
1970-01-01 00:00:39.574	0.0	0.25	0.0	0.0	3	74	-67	23	-79	98473	524	0.11990441381931305	-12.604891777038574	0.0	0.0	10471.0	-107.0	-98933.0	751	-700.33740234375	52.85689163208008	0.0	2088.0	2032.0	2564.0	196	185	175	175	1561808427307	both
1970-01-01 00:00:39.670	0.0	0.25	0.0	0.0	3	74	-64	24	-84	98467	524	0.11942405253648758	-10.934087753295898	0.0	0.0	9872.0	-403.0	-98786.0	743	-842.062255859375	43.25479507446289	0.0	2148.0	2016.0	2608.0	203	181	177	172	1561855522369	both
1970-01-01 00:00:39.704	0.0	0.25	0.0	0.0	3	74	-67	27	-85	98458	524	0.11771871894598007	-10.89324951171875	0.0	0.0	9761.0	-504.0	-98792.0	741	-879.1141967773438	22.319101333618164	0.0	2116.0	2132.0	2576.0	198	187	172	176	1561872557861	both
1970-01-01 00:00:39.736	0.0	0.25	0.0	0.0	3	74	-62	26	-86	98503	524	0.117942713201046	-11.261110305786133	0.0	0.0	9704.0	-578.0	-98838.0	740	-906.1216430664062	16.365345001220707	0.0	2116.0	2104.0	2584.0	198	184	175	175	1561886587646	both
1970-01-01 00:00:39.799	0.0	0.25	0.0	0.0	3	74	-64	26	-82	98440	524	0.11689657717943193	-11.599976539611815	0.0	0.0	9566.0	-669.0	-98856.0	739	-970.6604614257812	-5.074522972106934	0.0	2168.0	2048.0	2576.0	198	184	173	175	1561918653167	both
1970-01-01 00:00:39.869	0.0	0.25	0.0	0.0	3	74	-64	30	-84	98500	524	0.117217518389225	-10.982316970825195	0.0	0.0	9559.0	-840.0	-98828.0	738	-1012.7025146484376	-19.77463722229004	0.0	2068.0	2040.0	2568.0	201	180	175	173	1561953723144	both
1970-01-01 00:00:39.900	0.0	0.25	0.0	0.0	3	74	-57	27	-87	98497	524	0.11723870784044264	-11.180840492248537	0.0	0.0	9562.0	-892.0	-98831.0	736	-1077.046630859375	-22.34296989440918	0.0	2112.0	2032.0	2564.0	201	181	174	174	1561967753356	both
1970-01-01 00:00:40.002	0.0	0.25	0.0	0.0	3	74	-63	31	-85	98491	524	0.11652564257383348	-7.19660758972168	0.0	0.0	9668.0	-947.0	-98916.0	738	-1291.196533203125	-17.325000762939453	0.0	2064.0	2092.0	2560.0	199	180	176	172	1562016853729	both
1970-01-01 00:00:40.069	0.0	0.25	0.0	0.0	3	74	-68	32	-90	98477	524	0.11408556997776033	-7.086212635040282	0.0	0.0	9805.0	-977.0	-99010.0	741	-1312.0142822265625	-18.10921859741211	0.0	2088.0	2016.0	2576.0	197	181	172	175	1562050923522	both
1970-01-01 00:00:40.100	0.0	0.25	0.0	0.0	3	74	-62	36	-82	98485	524	0.11367788165807725	-7.78004264831543	0.0	0.0	9841.0	-883.0	-99119.0	744	-1338.1744384765625	-42.01981735229492	0.0	2096.0	2036.0	2552.0	190	187	167	178	1562065953857	both
1970-01-01 00:00:41.900	0.0	0.0	0.0	0.25	4	74	-75	7	-97	98503	524	0.1048637181520462	-35.7681999206543	0.0	0.0	2565.0	953.0	-99438.0	745	-15.677984237670898	-86.41236114501953	0.0	2144.0	2052.0	2576.0	187	176	178	179	1564016753692	both
1970-01-01 00:00:41.930	0.0	0.0	0.0	0.25	3	74	-76	4	-98	98503	524	0.10472718626260756	-37.07708358764648	0.0	0.0	2380.0	992.0	-99374.0	744	-11.654397010803224	-86.91342163085938	0.0	2108.0	2040.0	2612.0	146	216	146	212	1564030783966	both
1970-01-01 00:00:42.030	0.0	0.0	0.0	0.25	3	74	-75	5	-97	98497	524	0.10290694236755372	-40.58288192749024	0.0	0.0	1832.0	276.0	-97536.0	740	-6.353065490722656	-102.5594482421875	0.0	2052.0	1980.0	2580.0	174	189	166	189	1564079884185	both
1970-01-01 00:00:42.128	0.0	0.0	0.0	0.25	3	74	-71	3	-95	98485	524	0.103143148124218	-41.82247161865234	0.0	0.0	1544.0	-116.0	-96385.0	741	-2.4005279541015625	-101.44784545898438	0.0	2120.0	2084.0	2560.0	180	183	167	185	1564106939819	both
1970-01-01 00:00:42.194	0.0	0.0	0.0	0.25	3	74	-73	5	-97	98494	524	0.1021963581442833	-42.0738639831543	0.0	0.0	1500.0	-173.0	-95254.0	741	-11.306748390197756	-93.53628540039062	0.0	2080.0	2028.0	2560.0	180	181	172	181	1564131989440	both
1970-01-01 00:00:42.225	0.0	0.0	0.0	0.25	3	74	-74	0	-98	98471	524	0.10291748493909836	-44.49011993408203	0.0	0.0	1405.0	-278.0	-93519.0	741	-3.587696313858032	-93.6089096069336	0.0	2124.0	2068.0	2592.0	181	179	173	180	1564703064605	both
1970-01-01 00:00:42.256	0.0	0.0	0.0	0.25	3	74	-73	-1	-103	98477	524	0.1024858057498932	-44.80974578857422	0.0	0.0	1416.0	-268.0	-92415.0	741	-3.078143119812012	-94.85044860839844	0.0	2072.0	2028.0	2576.0	183	178	172	180	1564725109741	both
1970-01-01 00:00:42.287	0.0	0.0	0.0	0.25	3	74	-74	2	-90	98500	524	0.10324609279632567	-46.20107650756836	0.0	0.0	1475.0	-294.0	-91736.0	740	13.171201705932615	-97.09239959716795	0.0	2032.0	2000.0	2552.0	180	179	173	183	1564740140014	both
1970-01-01 00:00:42.317	0.0	0.0	0.0	0.25	3	74	-74	0	-94	98497	524	0.10198844224214554	-46.179176330566406	0.0	0.0	1572.0	-235.0	-91052.0	740	2.0746078491210938	-95.8650360107422	0.0	2016.0	2024.0	2560.0	179	180	173	182	1564755170043	both
1970-01-01 00:00:42.517	0.0	0.0	0.0	0.25	3	74	-69	-7	-97	98503	524	0.10323252528905867	-49.78846740722656	0.0	0.0	1527.0	-22.0	-86543.0	743	-9.149893760681152	-106.73377990722656	0.0	2088.0	2016.0	2560.0	174	184	168	186	1564852370574	both
1970-01-01 00:00:42.687	0.0	0.0	0.0	0.25	3	74	-80	-10	-98	98491	524	0.10501601547002792	-51.3443603515625	0.0	0.0	1332.0	-213.0	-82621.0	742	-9.92875862121582	-107.4304656982422	0.0	2104.0	2048.0	2596.0	175	185	167	187	1564936541107	both
1970-01-01 00:00:42.718	0.0	0.0	0.0	0.25	3	74	-76	-14	-96	98491	524	0.10584315657615663	-51.49510192871094	0.0	0.0	1294.0	-251.0	-81950.0	741	-13.426462173461914	-104.78450775146484	0.0	2036.0	2088.0	2588.0	178	183	169	185	1564950571105	both
1970-01-01 00:00:42.738	0.0	0.0	0.0	0.25	3	74	-74	-16	-94	98500	524	0.1059323251247406	-51.73590850830078	0.0	0.0	1253.0	-273.0	-81475.0	741	-14.138876914978027	-106.08824157714844	0.0	2104.0	2008.0	2576.0	183	178	173	181	1564960591339	both
1970-01-01 00:00:42.769	0.0	0.0	0.0	0.25	3	74	-76	-12	-96	98491	524	0.107351116836071	-52.42911911010742	0.0	0.0	1182.0	-308.0	-80792.0	742	-4.570689678192139	-108.4481430053711	0.0	2068.0	2028.0	2584.0	183	177	174	180	1564975621368	both
1970-01-01 00:00:42.803	0.0	0.0	0.0	0.25	3	74	-77	-15	-101	98477	524	0.10708935558795928	-52.57488250732422	0.0	0.0	1174.0	-296.0	-79877.0	742	-9.878140449523926	-110.76527404785156	0.0	2064.0	2008.0	2576.0	184	176	174	180	1564992656585	both
1970-01-01 00:00:42.822	0.0	0.0	0.0	0.25	3	74	-75	-11	-95	98500	524	0.10740162432193756	-53.17610549926758	0.0	0.0	1156.0	-321.0	-79426.0	742	-8.440804481506348	-113.9485092163086	0.0	2056.0	2064.0	2556.0	179	180	169	184	1565002676391	both
1970-01-01 00:00:42.853	0.0	0.0	0.0	0.25	3	74	-74	-14	-100	98491	524	0.10797327756881714	-53.96027374267578	0.0	0.0	1151.0	-337.0	-78714.0	743	-6.082583427429199	-120.5426788330078	0.0	2060.0	2036.0	2564.0	181	178	172	182	1565017706604	both
1970-01-01 00:00:42.883	0.0	0.0	0.0	0.25	3	74	-76	-18	-96	98474	524	0.10840520262718199	-54.103271484375	0.0	0.0	1147.0	-368.0	-78033.0	745	-7.492548942565918	-121.9993133544922	0.0	2060.0	2016.0	2572.0	181	176	172	180	1565031736663	both
1970-01-01 00:00:42.938	0.0	0.0	0.0	0.25	3	74	-74	-14	-100	98479	524	0.10894745588302612	-54.31991195678711	0.0	0.0	1134.0	-369.0	-76778.0	744	-12.138898849487305	-120.7235107421875	0.0	2072.0	2080.0	2564.0	180	179	170	183	1565058791931	both
1970-01-01 00:00:42.969	0.0	0.0	0.0	0.25	3	73	-70	-16	-98	98503	524	0.10923140496015547	-54.87582015991211	0.0	0.0	1125.0	-366.0	-75946.0	744	-9.85477066040039	-122.86971282958984	0.0	2048.0	2080.0	2572.0	184	174	176	178	1565073822174	both
1970-01-01 00:00:43.058	0.0	0.0	0.0	0.25	3	73	-69	-19	-99	98488	524	0.10980065912008287	-55.34716415405274	0.0	0.0	1062.0	-500.0	-73818.0	742	-14.345682144165039	-129.71937561035156	0.0	2060.0	2000.0	2568.0	183	177	174	182	1565117912017	both
1970-01-01 00:00:43.108	0.0	0.0	0.0	0.25	3	73	-71	-15	-103	98471	524	0.11055336892604828	-55.88766479492188	0.0	0.0	981.0	-500.0	-72643.0	742	-13.83004093170166	-135.9036865234375	0.0	2016.0	2004.0	2572.0	182	178	171	183	1565141962188	both
1970-01-01 00:00:43.144	0.0	0.0	0.0	0.25	3	73	-76	-26	-98	98468	524	0.11155791580677032	-56.25910186767578	0.0	0.0	939.0	-563.0	-71777.0	741	-6.490674018859862	-135.33047485351562	0.0	1992.0	2076.0	2580.0	183	177	172	183	1565158997314	both
1970-01-01 00:00:43.194	0.0	0.0	0.0	0.25	3	73	-74	-22	-94	98485	524	0.1121658906340599	-56.92244338989258	0.0	0.0	872.0	-640.0	-70497.0	742	-7.0274658203125	-145.77584838867188	0.0	2028.0	2108.0	2600.0	186	174	173	180	1565719047576	both
1970-01-01 00:00:43.274	0.0	0.0	0.0	0.25	3	73	-74	-24	-92	98485	524	0.11332529038190843	-57.913352966308594	0.0	0.0	811.0	-657.0	-68529.0	743	-5.264453411102295	-156.03822326660156	0.0	2008.0	2104.0	2584.0	185	175	174	178	1565758127716	both
1970-01-01 00:00:43.308	0.0	0.0	0.0	0.25	3	73	-72	-24	-102	98494	524	0.11414524167776108	-57.80350875854492	0.0	0.0	787.0	-646.0	-67781.0	745	-3.7347450256347656	-150.49221801757812	0.0	1968.0	2064.0	2584.0	185	174	172	179	1565773157714	both
1970-01-01 00:00:43.360	0.0	0.0	0.0	0.25	3	73	-68	-30	-96	98500	524	0.11563345789909366	-59.23484420776367	0.0	0.0	776.0	-632.0	-66318.0	745	1.0016683340072632	-162.5509033203125	0.0	2152.0	2052.0	2576.0	185	172	176	178	1565800213104	both
1970-01-01 00:00:43.394	0.0	0.0	0.0	0.25	3	73	-73	-31	-99	98494	524	0.11662471294403075	-59.10871124267578	0.0	0.0	793.0	-630.0	-65450.0	747	3.1168134212493896	-163.13790893554688	0.0	2116.0	2024.0	2556.0	180	175	171	183	1565817247955	both
1970-01-01 00:00:43.445	0.0	0.0	0.0	0.25	3	73	-69	-33	-95	98500	524	0.11727700382471085	-59.324378967285156	0.0	0.0	782.0	-529.0	-64158.0	746	-3.65575122833252	-161.72454833984375	0.0	2068.0	2028.0	2572.0	185	174	175	178	1565841298217	both
1970-01-01 00:00:43.479	0.0	0.0	0.0	0.25	3	73	-69	-31	-99	98500	524	0.11958953738212585	-59.818885803222656	0.0	0.0	726.0	-485.0	-63296.0	747	8.285694122314451	-164.99407958984375	0.0	1968.0	1996.0	2568.0	183	175	173	179	1565858333190	both
1970-01-01 00:00:43.496	0.0	0.0	0.0	0.25	3	73	-72	-28	-96	98482	524	0.11947082728147508	-59.83615493774414	0.0	0.0	700.0	-453.0	-62907.0	748	5.444186210632324	-163.19735717773438	0.0	2000.0	2008.0	2572.0	184	174	174	177	1565866348327	both
1970-01-01 00:00:43.579	0.0	0.0	0.0	0.25	3	73	-69	-37	-99	98485	524	0.12176989018917085	-60.29816055297852	0.0	0.0	535.0	-278.0	-60772.0	751	12.741705894470215	-159.88197326660156	0.0	2036.0	2000.0	2580.0	184	174	174	176	1565907433563	both
1970-01-01 00:00:43.610	0.0	0.0	0.0	0.25	3	73	-69	-31	-101	98509	524	0.12300866097211838	-60.55644607543945	0.0	0.0	470.0	-296.0	-60022.0	750	19.599628448486328	-154.829345703125	0.0	1992.0	1944.0	2564.0	183	175	173	179	1565922463806	both
1970-01-01 00:00:43.780	0.0	0.0	0.0	0.25	3	73	-66	-40	-86	98500	524	0.12703964114189148	-61.01931381225586	0.0	0.0	417.0	-345.0	-55796.0	758	42.20191192626953	-165.6024627685547	0.0	2060.0	2120.0	2572.0	184	172	173	176	1566005634185	both
1970-01-01 00:00:43.832	0.0	0.0	0.0	0.25	3	73	-74	-44	-98	98506	524	0.12920738756656647	-62.129173278808594	0.0	0.0	372.0	-333.0	-54595.0	760	48.06016159057617	-183.17953491210938	0.0	2056.0	2048.0	2572.0	179	176	169	180	1566030684143	both
1970-01-01 00:00:43.947	0.0	0.0	0.0	0.25	3	73	-66	-42	-96	98479	524	0.1304045468568802	-61.44633483886719	0.0	0.0	469.0	-207.0	-51757.0	769	49.30675506591797	-175.05496215820312	0.0	2052.0	1984.0	2580.0	181	170	171	176	1566086799835	both
1970-01-01 00:00:43.981	0.0	0.0	0.0	0.25	3	73	-70	-44	-98	98503	524	0.13218508660793304	-61.93384170532226	0.0	0.0	532.0	-263.0	-50936.0	772	56.25896835327149	-184.0133209228516	0.0	2064.0	1992.0	2576.0	174	174	165	183	1566103834655	both
1970-01-01 00:00:44.031	0.0	0.0	0.0	0.25	3	73	-62	-44	-98	98500	524	0.1278056502342224	-62.35604858398438	0.0	0.0	569.0	-264.0	-49720.0	773	-9.216836929321287	-185.4091796875	0.0	2072.0	2032.0	2576.0	180	170	173	176	1566128884765	both
1970-01-01 00:00:44.066	0.0	0.0	0.0	0.25	3	73	-66	-44	-96	98509	524	0.12907372415065765	-62.253639221191406	0.0	0.0	648.0	-180.0	-48893.0	776	-26.677202224731445	-181.16656494140625	0.0	2076.0	2072.0	2560.0	177	171	171	177	1566145919891	both
1970-01-01 00:00:44.202	0.0	0.0	0.0	0.25	3	73	-66	-48	-98	98497	524	0.1283983588218689	-61.08282852172852	0.0	0.0	669.0	147.0	-45688.0	776	-23.944599151611328	-164.30914306640625	0.0	2040.0	2032.0	2528.0	176	175	171	180	1566747055358	both
1970-01-01 00:00:44.337	0.0	0.0	0.0	0.25	3	73	-65	-51	-93	98506	524	0.13147619366645813	-61.41128540039063	0.0	0.0	491.0	225.0	-42594.0	779	3.582200050354004	-154.5723419189453	0.0	2048.0	1972.0	2584.0	175	178	165	182	1566813190917	both
1970-01-01 00:00:44.371	0.0	0.0	0.0	0.25	3	73	-63	-57	-97	98479	524	0.13315755128860474	-61.413818359375	0.0	0.0	410.0	197.0	-41928.0	781	16.532495498657227	-157.55418395996094	0.0	2048.0	1940.0	2552.0	173	178	164	183	1566828221252	both
1970-01-01 00:00:44.403	0.0	0.0	0.0	0.25	3	73	-62	-48	-88	98488	524	0.13378560543060306	-61.14255142211914	0.0	0.0	367.0	251.0	-41089.0	780	32.433948516845696	-156.7671356201172	0.0	2064.0	1980.0	2576.0	177	175	170	177	1566844255981	both
1970-01-01 00:00:44.452	0.0	0.0	0.0	0.25	3	73	-55	-53	-93	98477	524	0.13361896574497226	-60.15586853027344	0.0	0.0	245.0	162.0	-39973.0	779	44.4671745300293	-135.72981262207028	0.0	2072.0	2040.0	2568.0	174	179	164	184	1566869306213	both
1970-01-01 00:00:44.484	0.0	0.0	0.0	0.25	3	73	-56	-52	-90	98491	524	0.13452138006687164	-60.50824356079102	0.0	0.0	178.0	116.0	-39311.0	778	47.40671157836914	-136.88917541503906	0.0	2084.0	1968.0	2564.0	176	179	164	184	1566884336059	both
1970-01-01 00:00:44.535	0.0	0.0	0.0	0.25	3	73	-59	-51	-99	98488	524	0.13608913123607635	-60.4458236694336	0.0	0.0	106.0	82.0	-38172.0	779	57.092323303222656	-143.10275268554688	0.0	2096.0	2016.0	2556.0	177	177	169	179	1566908386535	both
1970-01-01 00:00:44.673	0.0	0.0	0.0	0.25	3	73	-55	-55	-93	98506	524	0.13467207551002502	-59.21478271484375	0.0	0.0	157.0	-160.0	-35084.0	774	36.83404159545898	-117.4558334350586	0.0	2040.0	1984.0	2592.0	175	180	165	185	1566977526611	both
1970-01-01 00:00:44.708	0.0	0.0	0.0	0.25	3	73	-53	-57	-91	98468	524	0.1356579214334488	-59.09844589233398	0.0	0.0	184.0	-158.0	-34284.0	774	43.21661376953125	-122.53843688964844	0.0	2096.0	2016.0	2580.0	178	175	171	181	1566994561828	both
1970-01-01 00:00:44.739	0.0	0.0	0.0	0.25	3	73	-52	-56	-94	98500	524	0.13299624621868136	-58.6876220703125	0.0	0.0	294.0	-136.0	-33622.0	774	30.623483657836914	-108.09162902832031	0.0	2032.0	1988.0	2596.0	176	177	169	183	1567008591796	both
1970-01-01 00:00:44.758	0.0	0.0	0.0	0.25	3	73	-52	-58	-96	98477	524	0.13249537348747253	-58.67815017700195	0.0	0.0	343.0	-101.0	-33156.0	773	16.580503463745114	-97.16659545898438	0.0	2104.0	2072.0	2568.0	176	177	169	182	1567018611999	both
1970-01-01 00:00:44.791	0.0	0.0	0.0	0.25	3	73	-50	-60	-94	98477	524	0.1318538784980774	-58.30937957763672	0.0	0.0	404.0	-144.0	-32484.0	774	2.915496349334717	-83.51814270019531	0.0	2052.0	2020.0	2572.0	176	177	168	184	1567033641937	both
1970-01-01 00:00:44.824	0.0	0.0	0.0	0.25	3	73	-46	-54	-98	98497	524	0.13345709443092346	-58.47634506225586	0.0	0.0	485.0	-160.0	-31759.0	772	5.748279094696045	-88.77241516113281	0.0	2088.0	2088.0	2552.0	172	180	167	187	1567050677185	both
1970-01-01 00:00:44.875	0.0	0.0	0.0	0.25	3	73	-51	-57	-93	98477	524	0.13205495476722715	-57.92259979248047	0.0	0.0	615.0	-67.0	-30720.0	770	-1.5581111907958984	-78.41275787353516	0.0	2080.0	2088.0	2576.0	174	178	169	185	1567075727142	both
1970-01-01 00:00:44.904	0.0	0.0	0.0	0.25	3	73	-54	-56	-92	98465	524	0.1315678358078003	-57.370460510253906	0.0	0.0	684.0	-56.0	-30100.0	771	-1.5215351581573486	-68.28524780273439	0.0	2040.0	2068.0	2572.0	172	179	166	188	1567089757263	both
1970-01-01 00:00:44.959	0.0	0.0	0.0	0.25	3	73	-50	-54	-92	98477	523	0.13063836097717285	-56.99549102783203	0.0	0.0	751.0	-101.0	-29051.0	770	-7.43265438079834	-59.040245056152344	0.0	2056.0	2060.0	2580.0	175	177	167	185	1567114807556	both
1970-01-01 00:00:44.989	0.0	0.0	0.0	0.25	3	73	-57	-59	-99	98482	524	0.1311342865228653	-56.69397354125977	0.0	0.0	766.0	-187.0	-28304.0	769	2.488891124725342	-56.55182647705078	0.0	2112.0	2048.0	2588.0	175	177	168	186	1567131842651	both
1970-01-01 00:00:45.040	0.0	0.0	0.0	0.25	3	73	-45	-59	-91	98468	523	0.13043294847011566	-56.30853652954102	0.0	0.0	831.0	-327.0	-27243.0	769	-1.6724889278411863	-53.17256164550781	0.0	2104.0	2052.0	2580.0	174	176	166	188	1567155892578	both
1970-01-01 00:00:45.074	0.0	0.0	0.0	0.25	3	73	-51	-63	-93	98500	524	0.1295425146818161	-55.98315048217773	0.0	0.0	863.0	-375.0	-26589.0	766	-5.1444435119628915	-57.01565933227539	0.0	2036.0	2080.0	2580.0	168	183	161	194	1567172927673	both
1970-01-01 00:00:45.125	0.0	0.0	0.0	0.25	3	73	-47	-69	-93	98512	524	0.12887175381183624	-55.66444778442383	0.0	0.0	852.0	-348.0	-25482.0	764	-6.788973331451416	-55.61828994750977	0.0	1992.0	2072.0	2588.0	179	175	173	183	1567197977874	both
1970-01-01 00:00:45.179	0.0	0.0	0.0	0.25	3	73	-45	-55	-93	98468	523	0.12825369834899902	-54.69293594360352	0.0	0.0	811.0	-366.0	-24292.0	762	-1.0999047756195068	-43.70037841796875	0.0	2112.0	2044.0	2548.0	175	178	166	189	1567760033111	both
1970-01-01 00:00:45.210	0.0	0.0	0.0	0.25	3	73	-46	-58	-94	98506	524	0.12836231291294098	-54.78366470336914	0.0	0.0	826.0	-405.0	-23661.0	762	0.5860945582389832	-50.00973510742188	0.0	2096.0	2116.0	2576.0	172	180	166	190	1567774063385	both
