time	leftRight	frontBack	up	angular	State	Battery_level	Magnetometer_x	Magnetometer_y	Magnetometer_z	Pressure	Temperature	Wind_speed	Wind_angle	Wind_compensation:pitch	Wind_compensation:roll	Pitch_y	Roll_x	Yaw_z	Altitude	Velocity_x	Velocity_y	Velocity_z	Acceleration_x	Acceleration_y	Acceleration_z	Motor_1_power	Motor_2_power	Motor_3_power	Motor_4_power	time_board
1970-01-01 00:00:00.000	0.0	-0.25	0.0	0.0	7.0	83.0	-76.0	6.0	-90.0	98469.0	531.0	0.00537707656621933	-47.9677963256836	0.0	0.0	-1.0	-14.0	-99321.0	721.0	-25.68644905090332	14.866025924682615	0.0	2004.0	2096.0	2556.0	178.0	177.0	176.0	183.0	1521058856811.0
1970-01-01 00:00:00.050	0.0	-0.25	0.0	0.0	7.0	83.0	-76.0	1.0	-97.0	98482.0	530.5	0.00574225140735507	-46.014963150024414	0.0	0.0	-40.5	-243.0	-99400.0	723.0	-19.16439437866211	19.24372148513794	0.0	1992.0	2064.0	2552.0	177.5	167.5	186.0	183.5	1521097936874.0
1970-01-01 00:00:00.100	0.0	-0.25	0.0	0.0	7.0	83.0	-76.0	1.0	-97.0	98482.0	530.5	0.00574225140735507	-46.014963150024414	0.0	0.0	-40.5	-243.0	-99400.0	723.0	-19.16439437866211	19.24372148513794	0.0	1992.0	2064.0	2552.0	177.5	167.5	186.0	183.5	1521097936874.0
1970-01-01 00:00:00.150	0.0	-0.25	0.0	0.0	7.0	83.0	-71.0	-1.0	-89.0	98478.0	531.0	0.006394505500793457	-44.26980209350586	0.0	0.0	-2278.0	-905.0	-99446.0	726.0	-4.626230239868164	20.935237884521484	0.0	2032.0	2044.0	2564.0	179.0	172.0	180.0	184.0	1521686046813.0
1970-01-01 00:00:00.200	0.0	-0.25	0.0	0.0	7.0	83.0	-77.0	-3.0	-95.0	98486.0	531.0	0.006463313475251198	-45.45178604125977	0.0	0.0	-3169.0	-970.0	-99406.0	726.0	9.697206497192383	15.24989128112793	0.0	2100.0	2044.0	2556.0	181.0	173.0	181.0	181.0	1521701076873.0
1970-01-01 00:00:00.250	0.0	-0.25	0.0	0.0	7.0	83.0	-79.0	-3.0	-91.0	98469.0	531.0	0.006759619805961847	-41.82766723632813	0.0	0.0	-4850.0	-972.0	-99384.0	727.0	31.540361404418945	8.557819366455076	0.0	2060.0	2028.0	2560.0	182.0	174.0	180.0	182.0	1521733142181.0
1970-01-01 00:00:00.300	0.0	-0.25	0.0	0.0	7.0	83.0	-75.0	-11.0	-95.0	98495.0	531.0	0.006950801704078914	-41.62017059326172	0.0	0.0	-5472.0	-977.0	-99395.0	728.0	51.22620391845703	7.361525058746338	0.0	2120.0	2052.0	2548.0	181.0	176.0	179.0	183.0	1521748172485.0
1970-01-01 00:00:00.350	0.0	-0.25	0.0	0.0	7.0	83.0	-82.0	-18.0	-92.0	98478.0	531.0	0.0072533716447651395	-41.00912094116211	0.0	0.0	-6589.0	-942.0	-99422.0	729.0	99.80426788330078	1.30102801322937	0.0	2096.0	2044.0	2552.0	180.0	176.0	180.0	184.0	1521779237426.0
1970-01-01 00:00:00.400	0.0	-0.25	0.0	0.0	7.0	83.0	-72.0	-16.0	-92.0	98472.0	531.0	0.007717486936599015	-37.59817123413086	0.0	0.0	-7178.0	-932.0	-99411.0	730.0	150.1459503173828	0.5578958988189697	0.0	2056.0	2036.0	2556.0	180.0	173.0	183.0	182.0	1521811302642.0
1970-01-01 00:00:00.450	0.0	-0.25	0.0	0.0	7.0	83.0	-72.0	-24.0	-92.0	98498.0	531.0	0.007932827807962894	-38.04644012451172	0.0	0.0	-7353.0	-900.0	-99456.0	730.0	178.51443481445312	-0.8334827423095703	0.0	2096.0	2060.0	2552.0	179.0	177.0	180.0	187.0	1521826332794.0
1970-01-01 00:00:00.500	0.0	-0.25	0.0	0.0	7.0	83.0	-78.0	-16.0	-88.0	98475.0	530.0	0.008143494836986065	-39.99837493896485	0.0	0.0	-7511.0	-880.0	-99530.0	731.0	265.98617553710943	-11.315088272094727	0.0	2072.0	2056.0	2552.0	177.0	175.0	182.0	186.0	1521858397735.0
1970-01-01 00:00:00.550	0.0	-0.25	0.0	0.0	7.0	83.0	-78.0	-16.0	-88.0	98475.0	530.0	0.008143494836986065	-39.99837493896485	0.0	0.0	-7511.0	-880.0	-99530.0	731.0	265.98617553710943	-11.315088272094727	0.0	2072.0	2056.0	2552.0	177.0	175.0	182.0	186.0	1521858397735.0
1970-01-01 00:00:00.600	0.0	-0.25	0.0	0.0	7.0	83.0	-77.0	-15.0	-91.0	98489.0	531.0	0.00921019446104765	-40.40832901000977	0.0	0.0	-7354.0	-859.0	-99532.0	735.0	361.6659851074219	-9.907031059265137	0.0	2076.0	2036.0	2552.0	175.0	171.0	182.0	187.0	1521904493469.0
1970-01-01 00:00:00.650	0.0	-0.25	0.0	0.0	7.0	83.0	-77.0	-15.0	-91.0	98489.0	531.0	0.00921019446104765	-40.40832901000977	0.0	0.0	-7354.0	-859.0	-99532.0	735.0	361.6659851074219	-9.907031059265137	0.0	2076.0	2036.0	2552.0	175.0	171.0	182.0	187.0	1521904493469.0
1970-01-01 00:00:00.700	0.0	-0.25	0.0	0.0	7.0	83.0	-74.5	-17.5	-91.5	98482.0	530.0	0.009551514405757189	-42.62867546081544	0.0	0.0	-7145.0	-947.5	-99570.5	733.0	434.29136657714844	-15.797748565673828	0.0	2050.0	2028.0	2566.0	176.5	172.0	184.5	190.0	1521937058379.5
1970-01-01 00:00:00.750	0.0	-0.25	0.0	0.0	7.0	83.0	-75.0	-17.0	-91.0	98489.0	530.0	0.009953700937330723	-45.934295654296875	0.0	0.0	-6909.5	-1077.0	-99599.0	731.0	514.8507537841797	-29.001926422119144	0.0	1968.0	1986.0	2582.0	177.5	172.0	186.0	192.0	1521973633834.0
1970-01-01 00:00:00.800	0.0	-0.25	0.0	0.0	7.0	83.0	-75.0	-17.0	-91.0	98489.0	530.0	0.009953700937330723	-45.934295654296875	0.0	0.0	-6909.5	-1077.0	-99599.0	731.0	514.8507537841797	-29.001926422119144	0.0	1968.0	1986.0	2582.0	177.5	172.0	186.0	192.0	1521973633834.0
1970-01-01 00:00:00.850	0.0	-0.25	0.0	0.0	7.0	83.0	-72.0	-14.0	-88.0	98495.0	530.0	0.011077139526605606	-50.81881713867188	0.0	0.0	-6693.0	-1378.0	-99640.0	734.0	637.1296997070312	-40.87453842163086	0.0	2016.0	2036.0	2560.0	176.0	171.0	183.0	192.0	1522027743957.0
1970-01-01 00:00:00.900	0.0	-0.25	0.0	0.0	7.0	83.0	-72.0	-14.0	-88.0	98495.0	530.0	0.011077139526605606	-50.81881713867188	0.0	0.0	-6693.0	-1378.0	-99640.0	734.0	637.1296997070312	-40.87453842163086	0.0	2016.0	2036.0	2560.0	176.0	171.0	183.0	192.0	1522027743957.0
1970-01-01 00:00:00.950	0.0	-0.25	0.0	0.0	7.0	83.0	-75.5	-25.5	-91.5	98482.0	531.0	0.011742840521037579	-55.063350677490234	0.0	0.0	-6578.5	-1568.5	-99609.0	735.0	725.0991821289062	-56.79672813415527	0.0	2062.0	2082.0	2558.0	175.0	169.5	182.0	192.5	1522066824096.0
1970-01-01 00:00:01.000	0.0	-0.25	0.0	0.0	7.0	83.0	-74.0	-26.0	-94.0	98469.0	530.0	0.011999438516795635	-59.59085464477539	0.0	0.0	-6484.0	-1612.0	-99634.0	737.0	775.0518798828125	-72.92655181884766	0.0	2056.0	2068.0	2564.0	173.0	167.0	185.0	189.0	1522088869262.0
1970-01-01 00:00:01.050	0.0	-0.25	0.0	0.0	7.0	83.0	-70.0	-16.0	-94.0	98513.0	530.0	0.012670249678194523	-58.1410026550293	0.0	0.0	-6334.0	-1622.0	-99606.0	733.0	813.7254638671875	-70.6908950805664	0.0	2048.0	1988.0	2576.0	176.0	169.0	186.0	195.0	1522117929687.0
1970-01-01 00:00:01.100	0.0	-0.25	0.0	0.0	7.0	83.0	-69.0	-19.0	-88.0	98470.5	530.0	0.0124064264819026	-60.30720329284668	0.0	0.0	-6197.5	-1652.5	-99550.5	734.0	835.4635925292969	-81.18545532226562	0.0	2058.0	2012.0	2576.0	179.5	164.5	189.5	189.5	1522141477355.5
1970-01-01 00:00:01.150	0.0	-0.25	0.0	0.0	7.0	83.0	-69.0	-19.0	-88.0	98470.5	530.0	0.0124064264819026	-60.30720329284668	0.0	0.0	-6197.5	-1652.5	-99550.5	734.0	835.4635925292969	-81.18545532226562	0.0	2058.0	2012.0	2576.0	179.5	164.5	189.5	189.5	1522141477355.5
1970-01-01 00:00:01.200	0.0	-0.25	0.0	0.0	7.0	83.0	-77.0	-21.0	-87.0	98478.0	530.0	0.013514970429241656	-73.1937484741211	0.0	0.0	-5987.0	-1763.0	-99448.0	734.0	951.5516967773438	-128.384521484375	0.0	2032.0	2040.0	2580.0	177.0	167.0	188.0	192.0	1522734095397.0
1970-01-01 00:00:01.250	0.0	-0.25	0.0	0.0	7.0	83.0	-66.0	-16.0	-94.0	98480.0	530.0	0.01413710694760084	-75.5105972290039	0.0	0.0	-5942.0	-1689.0	-99453.0	734.0	988.5369262695312	-145.83279418945312	0.0	2036.0	2056.0	2588.0	176.0	166.0	189.0	191.0	1522751130004.0
1970-01-01 00:00:01.300	0.0	-0.25	0.0	0.0	7.0	83.0	-67.5	-22.5	-93.5	98456.5	530.0	0.013425152748823166	-80.22909927368164	0.0	0.0	-5828.0	-1552.5	-99453.0	736.5	997.6032409667969	-174.42759704589844	0.0	2072.0	2042.0	2580.0	172.0	166.0	186.0	191.5	1522773175506.0
1970-01-01 00:00:01.350	0.0	-0.25	0.0	0.0	7.0	83.0	-67.5	-22.5	-93.5	98456.5	530.0	0.013425152748823166	-80.22909927368164	0.0	0.0	-5828.0	-1552.5	-99453.0	736.5	997.6032409667969	-174.42759704589844	0.0	2072.0	2042.0	2580.0	172.0	166.0	186.0	191.5	1522773175506.0
1970-01-01 00:00:01.400	0.0	-0.25	0.0	0.0	3.0	83.0	-70.0	-18.0	-92.0	98478.0	530.0	0.015119954943656918	-87.88569641113281	0.0	0.0	-5195.0	-1193.0	-99428.0	739.0	1074.9844970703123	-199.40267944335938	0.0	1996.0	2028.0	2588.0	167.0	160.0	189.0	191.0	1522827285583.0
1970-01-01 00:00:01.450	0.0	-0.25	0.0	0.0	3.0	83.0	-71.0	-21.0	-95.0	98475.0	530.0	0.014110053889453413	-91.80178833007812	0.0	0.0	-5304.0	-1135.0	-99426.0	738.0	1049.975341796875	-211.4183807373047	0.0	2008.0	2020.0	2564.0	172.0	164.0	186.0	189.0	1522859350891.0
1970-01-01 00:00:01.500	0.0	-0.25	0.0	0.0	3.0	83.0	-71.0	-21.0	-95.0	98475.0	530.0	0.014110053889453413	-91.80178833007812	0.0	0.0	-5304.0	-1135.0	-99426.0	738.0	1049.975341796875	-211.4183807373047	0.0	2008.0	2020.0	2564.0	172.0	164.0	186.0	189.0	1522859350891.0
1970-01-01 00:00:01.550	0.0	-0.25	0.0	0.0	3.0	83.0	-70.0	-28.0	-92.0	98489.0	530.0	0.014127110131084919	-94.71283721923828	0.0	0.0	-5974.0	-980.0	-99497.0	738.0	1058.412841796875	-222.16429138183597	0.0	2072.0	2052.0	2552.0	170.0	167.0	185.0	190.0	1522905445922.0
1970-01-01 00:00:01.600	0.0	-0.25	0.0	0.0	3.0	83.0	-71.0	-23.0	-93.0	98486.0	530.0	0.01562511920928955	-91.2119369506836	0.0	0.0	-6190.0	-907.0	-99547.0	739.0	1079.48876953125	-219.1042938232422	0.0	2120.0	2060.0	2548.0	168.0	171.0	182.0	192.0	1522920475982.0
1970-01-01 00:00:01.650	0.0	-0.25	0.0	0.0	3.0	83.0	-75.0	-23.0	-89.0	98453.0	530.0	0.014830074273049831	-89.90486145019531	0.0	0.0	-6588.0	-813.0	-99589.0	735.0	1101.4073486328123	-198.5414581298828	0.0	2052.0	2052.0	2548.0	172.0	169.0	186.0	192.0	1522952541351.0
1970-01-01 00:00:01.700	0.0	-0.25	0.0	0.0	3.0	83.0	-70.0	-26.0	-87.0	98469.5	530.0	0.014851579908281565	-89.19811248779297	0.0	0.0	-6698.5	-737.0	-99658.0	733.5	1121.6356201171875	-194.85655212402344	0.0	2008.0	2028.0	2562.0	169.0	171.5	184.5	194.5	1522974086379.5
1970-01-01 00:00:01.750	0.0	-0.25	0.0	0.0	3.0	83.0	-70.0	-26.0	-87.0	98469.5	530.0	0.014851579908281565	-89.19811248779297	0.0	0.0	-6698.5	-737.0	-99658.0	733.5	1121.6356201171875	-194.85655212402344	0.0	2008.0	2028.0	2562.0	169.0	171.5	184.5	194.5	1522974086379.5
1970-01-01 00:00:01.800	0.0	-0.25	0.0	0.0	3.0	83.0	-70.0	-26.0	-87.0	98469.5	530.0	0.014851579908281565	-89.19811248779297	0.0	0.0	-6698.5	-737.0	-99658.0	733.5	1121.6356201171875	-194.85655212402344	0.0	2008.0	2028.0	2562.0	169.0	171.5	184.5	194.5	1522974086379.5
1970-01-01 00:00:01.850	0.0	-0.25	0.0	0.0	3.0	83.0	-70.0	-26.0	-87.0	98469.5	530.0	0.014851579908281565	-89.19811248779297	0.0	0.0	-6698.5	-737.0	-99658.0	733.5	1121.6356201171875	-194.85655212402344	0.0	2008.0	2028.0	2562.0	169.0	171.5	184.5	194.5	1522974086379.5
1970-01-01 00:00:01.900	0.0	-0.25	0.0	0.0	3.0	83.0	-70.0	-26.0	-87.0	98469.5	530.0	0.014851579908281565	-89.19811248779297	0.0	0.0	-6698.5	-737.0	-99658.0	733.5	1121.6356201171875	-194.85655212402344	0.0	2008.0	2028.0	2562.0	169.0	171.5	184.5	194.5	1522974086379.5
1970-01-01 00:00:01.950	0.0	-0.25	0.0	0.0	3.0	83.0	-70.0	-26.0	-87.0	98469.5	530.0	0.014851579908281565	-89.19811248779297	0.0	0.0	-6698.5	-737.0	-99658.0	733.5	1121.6356201171875	-194.85655212402344	0.0	2008.0	2028.0	2562.0	169.0	171.5	184.5	194.5	1522974086379.5
1970-01-01 00:00:02.000	0.0	-0.25	0.0	0.0	3.0	83.0	-70.0	-26.0	-87.0	98469.5	530.0	0.014851579908281565	-89.19811248779297	0.0	0.0	-6698.5	-737.0	-99658.0	733.5	1121.6356201171875	-194.85655212402344	0.0	2008.0	2028.0	2562.0	169.0	171.5	184.5	194.5	1522974086379.5
1970-01-01 00:00:02.050	0.0	-0.25	0.0	0.0	3.0	83.0	-70.0	-26.0	-87.0	98469.5	530.0	0.014851579908281565	-89.19811248779297	0.0	0.0	-6698.5	-737.0	-99658.0	733.5	1121.6356201171875	-194.85655212402344	0.0	2008.0	2028.0	2562.0	169.0	171.5	184.5	194.5	1522974086379.5
1970-01-01 00:00:02.100	0.0	-0.25	0.0	0.0	3.0	83.0	-70.0	-26.0	-87.0	98469.5	530.0	0.014851579908281565	-89.19811248779297	0.0	0.0	-6698.5	-737.0	-99658.0	733.5	1121.6356201171875	-194.85655212402344	0.0	2008.0	2028.0	2562.0	169.0	171.5	184.5	194.5	1522974086379.5
1970-01-01 00:00:02.150	0.0	-0.25	0.0	0.0	3.0	83.0	-70.0	-26.0	-87.0	98469.5	530.0	0.014851579908281565	-89.19811248779297	0.0	0.0	-6698.5	-737.0	-99658.0	733.5	1121.6356201171875	-194.85655212402344	0.0	2008.0	2028.0	2562.0	169.0	171.5	184.5	194.5	1522974086379.5
1970-01-01 00:00:02.200	0.0	-0.25	0.0	0.0	3.0	83.0	-70.0	-26.0	-87.0	98469.5	530.0	0.014851579908281565	-89.19811248779297	0.0	0.0	-6698.5	-737.0	-99658.0	733.5	1121.6356201171875	-194.85655212402344	0.0	2008.0	2028.0	2562.0	169.0	171.5	184.5	194.5	1522974086379.5
1970-01-01 00:00:02.250	0.0	-0.25	0.0	0.0	3.0	83.0	-70.0	-26.0	-87.0	98469.5	530.0	0.014851579908281565	-89.19811248779297	0.0	0.0	-6698.5	-737.0	-99658.0	733.5	1121.6356201171875	-194.85655212402344	0.0	2008.0	2028.0	2562.0	169.0	171.5	184.5	194.5	1522974086379.5
1970-01-01 00:00:02.300	0.0	-0.25	0.0	0.0	3.0	83.0	-70.0	-26.0	-87.0	98469.5	530.0	0.014851579908281565	-89.19811248779297	0.0	0.0	-6698.5	-737.0	-99658.0	733.5	1121.6356201171875	-194.85655212402344	0.0	2008.0	2028.0	2562.0	169.0	171.5	184.5	194.5	1522974086379.5
1970-01-01 00:00:02.350	0.0	-0.25	0.0	0.0	3.0	83.0	-70.0	-26.0	-87.0	98469.5	530.0	0.014851579908281565	-89.19811248779297	0.0	0.0	-6698.5	-737.0	-99658.0	733.5	1121.6356201171875	-194.85655212402344	0.0	2008.0	2028.0	2562.0	169.0	171.5	184.5	194.5	1522974086379.5
1970-01-01 00:00:02.400	0.0	-0.25	0.0	0.0	3.0	83.0	-70.0	-26.0	-87.0	98469.5	530.0	0.014851579908281565	-89.19811248779297	0.0	0.0	-6698.5	-737.0	-99658.0	733.5	1121.6356201171875	-194.85655212402344	0.0	2008.0	2028.0	2562.0	169.0	171.5	184.5	194.5	1522974086379.5
1970-01-01 00:00:02.450	0.0	-0.25	0.0	0.0	3.0	83.0	-70.0	-26.0	-87.0	98469.5	530.0	0.014851579908281565	-89.19811248779297	0.0	0.0	-6698.5	-737.0	-99658.0	733.5	1121.6356201171875	-194.85655212402344	0.0	2008.0	2028.0	2562.0	169.0	171.5	184.5	194.5	1522974086379.5
1970-01-01 00:00:02.500	0.0	-0.25	0.0	0.0	3.0	83.0	-70.0	-26.0	-87.0	98469.5	530.0	0.014851579908281565	-89.19811248779297	0.0	0.0	-6698.5	-737.0	-99658.0	733.5	1121.6356201171875	-194.85655212402344	0.0	2008.0	2028.0	2562.0	169.0	171.5	184.5	194.5	1522974086379.5
1970-01-01 00:00:02.550	0.0	-0.25	0.0	0.0	3.0	83.0	-70.0	-26.0	-87.0	98469.5	530.0	0.014851579908281565	-89.19811248779297	0.0	0.0	-6698.5	-737.0	-99658.0	733.5	1121.6356201171875	-194.85655212402344	0.0	2008.0	2028.0	2562.0	169.0	171.5	184.5	194.5	1522974086379.5
1970-01-01 00:00:02.600	0.0	-0.25	0.0	0.0	3.0	83.0	-70.0	-26.0	-87.0	98469.5	530.0	0.014851579908281565	-89.19811248779297	0.0	0.0	-6698.5	-737.0	-99658.0	733.5	1121.6356201171875	-194.85655212402344	0.0	2008.0	2028.0	2562.0	169.0	171.5	184.5	194.5	1522974086379.5
1970-01-01 00:00:02.650	0.0	-0.25	0.0	0.0	3.0	83.0	-70.0	-26.0	-87.0	98469.5	530.0	0.014851579908281565	-89.19811248779297	0.0	0.0	-6698.5	-737.0	-99658.0	733.5	1121.6356201171875	-194.85655212402344	0.0	2008.0	2028.0	2562.0	169.0	171.5	184.5	194.5	1522974086379.5
1970-01-01 00:00:02.700	0.0	-0.25	0.0	0.0	3.0	83.0	-70.0	-26.0	-87.0	98469.5	530.0	0.014851579908281565	-89.19811248779297	0.0	0.0	-6698.5	-737.0	-99658.0	733.5	1121.6356201171875	-194.85655212402344	0.0	2008.0	2028.0	2562.0	169.0	171.5	184.5	194.5	1522974086379.5
1970-01-01 00:00:02.750	0.0	-0.25	0.0	0.0	3.0	83.0	-69.0	-1.0	-83.0	98478.0	530.0	0.030431909486651417	-63.90058898925781	0.0	0.0	2416.0	191.0	-99553.0	694.0	172.81764221191406	-0.5979787707328796	0.0	2016.0	1976.0	2592.0	183.0	173.0	194.0	191.0	1524019629455.0
1970-01-01 00:00:02.800	0.0	-0.25	0.0	0.0	3.0	83.0	-72.0	3.0	-91.0	98486.0	530.0	0.030545738525688648	-62.65147018432617	0.0	0.0	993.0	61.0	-99484.0	688.0	132.1334686279297	3.2259095907211304	0.0	2016.0	2048.0	2594.0	181.5	174.5	191.0	196.0	1524041674895.5
1970-01-01 00:00:02.850	0.0	-0.25	0.0	0.0	3.0	83.0	-74.0	-10.0	-88.0	98475.0	530.0	0.029896875843405724	-60.46359634399414	0.0	0.0	-2326.0	-118.0	-99407.0	679.0	90.65848541259766	-10.549267768859863	0.0	2056.0	2056.0	2584.0	191.0	174.0	195.0	185.0	1524080754943.0
1970-01-01 00:00:02.900	0.0	-0.25	0.0	0.0	3.0	83.0	-70.0	-16.0	-90.0	98475.0	530.0	0.030585825443267826	-59.33441543579102	0.0	0.0	-3680.0	-138.0	-99341.0	676.0	95.72652435302734	-9.880041122436523	0.0	2040.0	2108.0	2592.0	192.0	177.0	193.0	185.0	1524095785339.0
1970-01-01 00:00:02.950	0.0	-0.25	0.0	0.0	3.0	83.0	-72.5	-16.5	-89.5	98485.0	530.0	0.03076282050460577	-59.73349571228027	0.0	0.0	-5623.0	-188.0	-99297.0	674.5	130.24905395507812	-17.479362010955814	0.0	2044.0	2092.0	2588.0	191.5	177.5	190.5	186.0	1524119332702.5
1970-01-01 00:00:03.000	0.0	-0.25	0.0	0.0	3.0	83.0	-73.0	-17.0	-91.0	98489.0	530.0	0.03056405298411846	-57.49657440185547	0.0	0.0	-7295.0	-174.0	-99382.0	671.0	152.38540649414062	-23.2395076751709	0.0	2040.0	2100.0	2596.0	185.0	187.0	183.0	193.0	1524141880310.0
1970-01-01 00:00:03.050	0.0	-0.25	0.0	0.0	3.0	83.0	-73.0	-17.0	-91.0	98489.0	530.0	0.03056405298411846	-57.49657440185547	0.0	0.0	-7295.0	-174.0	-99382.0	671.0	152.38540649414062	-23.2395076751709	0.0	2040.0	2100.0	2596.0	185.0	187.0	183.0	193.0	1524141880310.0
1970-01-01 00:00:03.100	0.0	-0.25	0.0	0.0	3.0	83.0	-73.0	-17.0	-91.0	98489.0	530.0	0.03056405298411846	-57.49657440185547	0.0	0.0	-7295.0	-174.0	-99382.0	671.0	152.38540649414062	-23.2395076751709	0.0	2040.0	2100.0	2596.0	185.0	187.0	183.0	193.0	1524141880310.0
1970-01-01 00:00:03.150	0.0	-0.25	0.0	0.0	3.0	83.0	-70.0	-22.0	-82.0	98489.0	530.0	0.033010829240083694	-57.4771842956543	0.0	0.0	-10427.0	-100.0	-99341.0	677.0	372.9978942871094	-25.47702980041504	0.0	2124.0	2040.0	2580.0	185.0	180.0	187.0	190.0	1524755040740.0
1970-01-01 00:00:03.200	0.0	-0.25	0.0	0.0	3.0	83.0	-70.0	-22.0	-82.0	98489.0	530.0	0.033010829240083694	-57.4771842956543	0.0	0.0	-10427.0	-100.0	-99341.0	677.0	372.9978942871094	-25.47702980041504	0.0	2124.0	2040.0	2580.0	185.0	180.0	187.0	190.0	1524755040740.0
1970-01-01 00:00:03.250	0.0	-0.25	0.0	0.0	3.0	83.0	-70.5	-26.5	-87.5	98486.5	530.0	0.03504534251987934	-58.51667022705078	0.0	0.0	-10696.5	-41.0	-99373.0	678.5	499.8309631347656	-17.33251953125	0.0	2040.0	2002.0	2582.0	184.0	179.5	188.0	191.5	1524795623596.0
1970-01-01 00:00:03.300	0.0	-0.25	0.0	0.0	3.0	83.0	-71.0	-31.0	-85.0	98480.0	530.0	0.03481674939393997	-58.51649856567383	0.0	0.0	-10454.0	-174.0	-99387.0	683.0	602.8831176757812	-16.921104431152347	0.0	1988.0	2052.0	2600.0	182.0	175.0	190.0	193.0	1524836206207.0
1970-01-01 00:00:03.350	0.0	-0.25	0.0	0.0	3.0	83.0	-77.0	-29.0	-87.0	98501.0	530.0	0.03527090698480606	-58.89051818847656	0.0	0.0	-10274.0	-187.0	-99398.0	687.0	632.234130859375	-14.89914321899414	0.0	2008.0	2024.0	2592.0	181.0	174.0	189.0	192.0	1524851236328.0
1970-01-01 00:00:03.400	0.0	-0.25	0.0	0.0	3.0	83.0	-68.0	-30.0	-86.0	98501.0	530.0	0.035923004150390625	-59.783103942871094	0.0	0.0	-9948.0	-268.0	-99370.0	692.0	714.4966430664062	-17.99380874633789	0.0	2012.0	2060.0	2588.0	180.0	171.0	190.0	192.0	1524883301727.0
1970-01-01 00:00:03.450	0.0	-0.25	0.0	0.0	3.0	83.0	-71.0	-31.0	-87.0	98475.0	530.0	0.03633049502968788	-59.90095901489258	0.0	0.0	-9788.0	-352.0	-99381.0	695.0	757.5747680664062	-17.234125137329098	0.0	1960.0	2056.0	2568.0	179.0	170.0	189.0	193.0	1524900336517.0
1970-01-01 00:00:03.500	0.0	-0.25	0.0	0.0	3.0	83.0	-71.0	-29.0	-87.0	98484.5	530.0	0.035753434523940086	-59.3189697265625	0.0	0.0	-9468.0	-352.5	-99422.0	700.0	788.5298767089844	-19.01222038269043	0.0	2024.0	2070.0	2576.0	174.5	171.0	188.5	195.0	1524922381728.5
1970-01-01 00:00:03.550	0.0	-0.25	0.0	0.0	3.0	83.0	-69.0	-31.0	-83.0	98460.0	530.0	0.035663750022649765	-58.50697708129883	0.0	0.0	-9266.0	-317.0	-99421.0	703.0	819.98828125	-17.635190963745114	0.0	2100.0	2080.0	2564.0	177.0	170.0	189.0	193.0	1524944426971.0
1970-01-01 00:00:03.600	0.0	-0.25	0.0	0.0	3.0	83.0	-69.0	-31.0	-83.0	98460.0	530.0	0.035663750022649765	-58.50697708129883	0.0	0.0	-9266.0	-317.0	-99421.0	703.0	819.98828125	-17.635190963745114	0.0	2100.0	2080.0	2564.0	177.0	170.0	189.0	193.0	1524944426971.0
1970-01-01 00:00:03.650	0.0	-0.25	0.0	0.0	3.0	83.0	-75.0	-29.0	-93.0	98478.0	530.0	0.03694724291563034	-59.85598754882813	0.0	0.0	-8682.0	-280.0	-99330.0	711.0	932.0220947265624	-16.01668930053711	0.0	2044.0	2064.0	2560.0	175.0	166.0	192.0	193.0	1524993527221.0
1970-01-01 00:00:03.700	0.0	-0.25	0.0	0.0	3.0	83.0	-76.0	-32.0	-90.0	98501.0	530.0	0.038288354873657234	-65.013916015625	0.0	0.0	-8407.0	-67.0	-99295.0	716.0	1022.2071533203124	-41.66558837890625	0.0	2080.0	2092.0	2572.0	174.0	166.0	196.0	190.0	1525025592437.0
1970-01-01 00:00:03.750	0.0	-0.25	0.0	0.0	3.0	83.0	-70.0	-32.0	-88.0	98486.0	530.0	0.03861238062381744	-64.98909759521484	0.0	0.0	-8398.0	73.0	-99276.0	718.0	1074.272216796875	-44.123634338378906	0.0	2024.0	2076.0	2560.0	175.0	166.0	194.0	190.0	1525042627655.0
1970-01-01 00:00:03.800	0.0	-0.25	0.0	0.0	3.0	83.0	-70.0	-32.0	-88.0	98486.0	530.0	0.03861238062381744	-64.98909759521484	0.0	0.0	-8398.0	73.0	-99276.0	718.0	1074.272216796875	-44.123634338378906	0.0	2024.0	2076.0	2560.0	175.0	166.0	194.0	190.0	1525042627655.0
1970-01-01 00:00:03.850	0.0	-0.25	0.0	0.0	3.0	83.0	-77.0	-29.0	-85.0	98492.0	530.0	0.03972737491130829	-66.10505676269531	0.0	0.0	-8850.0	413.0	-99417.0	726.0	1169.0189208984375	-40.728477478027344	0.0	2016.0	2040.0	2584.0	173.0	171.0	189.0	192.0	1525091727661.0
1970-01-01 00:00:03.900	0.0	-0.25	0.0	0.0	3.0	83.0	-75.5	-29.5	-87.5	98483.5	530.0	0.04055259935557842	-65.2921142578125	0.0	0.0	-9037.0	308.5	-99453.0	729.0	1192.1093139648438	-25.783713340759277	0.0	2056.0	2082.0	2574.0	172.5	171.5	186.5	193.5	1525113772933.0
1970-01-01 00:00:03.950	0.0	-0.25	0.0	0.0	3.0	83.0	-78.0	-30.0	-88.0	98475.0	530.0	0.0407399982213974	-63.63283920288086	0.0	0.0	-9201.0	168.0	-99510.0	733.0	1216.09716796875	-16.864110946655273	0.0	2012.0	2028.0	2572.0	172.0	171.0	187.0	194.0	1525135818023.0
1970-01-01 00:00:04.000	0.0	-0.25	0.0	0.0	3.0	83.0	-78.0	-30.0	-88.0	98475.0	530.0	0.0407399982213974	-63.63283920288086	0.0	0.0	-9201.0	168.0	-99510.0	733.0	1216.09716796875	-16.864110946655273	0.0	2012.0	2028.0	2572.0	172.0	171.0	187.0	194.0	1525135818023.0
1970-01-01 00:00:04.050	0.0	-0.25	0.0	0.0	3.0	83.0	-74.0	-34.0	-88.0	98478.0	530.0	0.04129582270979881	-63.2744026184082	0.0	0.0	-9378.0	-303.0	-99687.0	743.0	1253.148681640625	-13.018437385559082	0.0	2056.0	2080.0	2556.0	166.0	175.0	176.0	201.0	1525184918243.0
1970-01-01 00:00:04.100	0.0	-0.25	0.0	0.0	3.0	83.0	-74.0	-34.0	-88.0	98478.0	530.0	0.04129582270979881	-63.2744026184082	0.0	0.0	-9378.0	-303.0	-99687.0	743.0	1253.148681640625	-13.018437385559082	0.0	2056.0	2080.0	2556.0	166.0	175.0	176.0	201.0	1525184918243.0
1970-01-01 00:00:04.150	0.0	-0.25	0.0	0.0	3.0	83.0	-74.0	-34.0	-88.0	98478.0	530.0	0.04129582270979881	-63.2744026184082	0.0	0.0	-9378.0	-303.0	-99687.0	743.0	1253.148681640625	-13.018437385559082	0.0	2056.0	2080.0	2556.0	166.0	175.0	176.0	201.0	1525184918243.0
1970-01-01 00:00:04.200	0.0	-0.25	0.0	0.0	3.0	83.0	-74.0	-34.0	-88.0	98478.0	530.0	0.04129582270979881	-63.2744026184082	0.0	0.0	-9378.0	-303.0	-99687.0	743.0	1253.148681640625	-13.018437385559082	0.0	2056.0	2080.0	2556.0	166.0	175.0	176.0	201.0	1525184918243.0
1970-01-01 00:00:04.250	0.0	-0.25	0.0	0.0	3.0	83.0	-74.0	-34.0	-88.0	98478.0	530.0	0.04129582270979881	-63.2744026184082	0.0	0.0	-9378.0	-303.0	-99687.0	743.0	1253.148681640625	-13.018437385559082	0.0	2056.0	2080.0	2556.0	166.0	175.0	176.0	201.0	1525184918243.0
1970-01-01 00:00:04.300	0.0	-0.25	0.0	0.0	3.0	83.0	-74.0	-34.0	-88.0	98478.0	530.0	0.04129582270979881	-63.2744026184082	0.0	0.0	-9378.0	-303.0	-99687.0	743.0	1253.148681640625	-13.018437385559082	0.0	2056.0	2080.0	2556.0	166.0	175.0	176.0	201.0	1525184918243.0
1970-01-01 00:00:04.350	0.0	-0.25	0.0	0.0	3.0	83.0	-74.0	-34.0	-88.0	98478.0	530.0	0.04129582270979881	-63.2744026184082	0.0	0.0	-9378.0	-303.0	-99687.0	743.0	1253.148681640625	-13.018437385559082	0.0	2056.0	2080.0	2556.0	166.0	175.0	176.0	201.0	1525184918243.0
1970-01-01 00:00:04.400	0.0	-0.25	0.0	0.0	3.0	83.0	-74.0	-34.0	-88.0	98478.0	530.0	0.04129582270979881	-63.2744026184082	0.0	0.0	-9378.0	-303.0	-99687.0	743.0	1253.148681640625	-13.018437385559082	0.0	2056.0	2080.0	2556.0	166.0	175.0	176.0	201.0	1525184918243.0
1970-01-01 00:00:04.450	0.0	-0.25	0.0	0.0	3.0	83.0	-74.0	-34.0	-88.0	98478.0	530.0	0.04129582270979881	-63.2744026184082	0.0	0.0	-9378.0	-303.0	-99687.0	743.0	1253.148681640625	-13.018437385559082	0.0	2056.0	2080.0	2556.0	166.0	175.0	176.0	201.0	1525184918243.0
1970-01-01 00:00:04.500	0.0	-0.25	0.0	0.0	3.0	83.0	-74.0	-34.0	-88.0	98478.0	530.0	0.04129582270979881	-63.2744026184082	0.0	0.0	-9378.0	-303.0	-99687.0	743.0	1253.148681640625	-13.018437385559082	0.0	2056.0	2080.0	2556.0	166.0	175.0	176.0	201.0	1525184918243.0
1970-01-01 00:00:04.550	0.0	-0.25	0.0	0.0	3.0	83.0	-74.0	-34.0	-88.0	98478.0	530.0	0.04129582270979881	-63.2744026184082	0.0	0.0	-9378.0	-303.0	-99687.0	743.0	1253.148681640625	-13.018437385559082	0.0	2056.0	2080.0	2556.0	166.0	175.0	176.0	201.0	1525184918243.0
1970-01-01 00:00:04.600	0.0	-0.25	0.0	0.0	3.0	83.0	-74.0	-34.0	-88.0	98478.0	530.0	0.04129582270979881	-63.2744026184082	0.0	0.0	-9378.0	-303.0	-99687.0	743.0	1253.148681640625	-13.018437385559082	0.0	2056.0	2080.0	2556.0	166.0	175.0	176.0	201.0	1525184918243.0
1970-01-01 00:00:04.650	0.0	-0.25	0.0	0.0	3.0	83.0	-74.0	-34.0	-88.0	98478.0	530.0	0.04129582270979881	-63.2744026184082	0.0	0.0	-9378.0	-303.0	-99687.0	743.0	1253.148681640625	-13.018437385559082	0.0	2056.0	2080.0	2556.0	166.0	175.0	176.0	201.0	1525184918243.0
1970-01-01 00:00:04.700	0.0	-0.25	0.0	0.0	3.0	83.0	-74.0	-34.0	-88.0	98478.0	530.0	0.04129582270979881	-63.2744026184082	0.0	0.0	-9378.0	-303.0	-99687.0	743.0	1253.148681640625	-13.018437385559082	0.0	2056.0	2080.0	2556.0	166.0	175.0	176.0	201.0	1525184918243.0
1970-01-01 00:00:04.750	0.0	-0.25	0.0	0.0	3.0	83.0	-74.0	-34.0	-88.0	98478.0	530.0	0.04129582270979881	-63.2744026184082	0.0	0.0	-9378.0	-303.0	-99687.0	743.0	1253.148681640625	-13.018437385559082	0.0	2056.0	2080.0	2556.0	166.0	175.0	176.0	201.0	1525184918243.0
1970-01-01 00:00:04.800	0.0	-0.25	0.0	0.0	3.0	83.0	-74.0	-34.0	-88.0	98478.0	530.0	0.04129582270979881	-63.2744026184082	0.0	0.0	-9378.0	-303.0	-99687.0	743.0	1253.148681640625	-13.018437385559082	0.0	2056.0	2080.0	2556.0	166.0	175.0	176.0	201.0	1525184918243.0
1970-01-01 00:00:04.850	0.0	-0.25	0.0	0.0	3.0	83.0	-74.0	-34.0	-88.0	98478.0	530.0	0.04129582270979881	-63.2744026184082	0.0	0.0	-9378.0	-303.0	-99687.0	743.0	1253.148681640625	-13.018437385559082	0.0	2056.0	2080.0	2556.0	166.0	175.0	176.0	201.0	1525184918243.0
1970-01-01 00:00:04.900	0.0	-0.25	0.0	0.0	3.0	83.0	-74.0	-34.0	-88.0	98478.0	530.0	0.04129582270979881	-63.2744026184082	0.0	0.0	-9378.0	-303.0	-99687.0	743.0	1253.148681640625	-13.018437385559082	0.0	2056.0	2080.0	2556.0	166.0	175.0	176.0	201.0	1525184918243.0
1970-01-01 00:00:04.950	0.0	-0.25	0.0	0.0	3.0	83.0	-74.0	-34.0	-88.0	98478.0	530.0	0.04129582270979881	-63.2744026184082	0.0	0.0	-9378.0	-303.0	-99687.0	743.0	1253.148681640625	-13.018437385559082	0.0	2056.0	2080.0	2556.0	166.0	175.0	176.0	201.0	1525184918243.0
1970-01-01 00:00:05.000	0.0	-0.25	0.0	0.0	3.0	83.0	-74.0	-34.0	-88.0	98478.0	530.0	0.04129582270979881	-63.2744026184082	0.0	0.0	-9378.0	-303.0	-99687.0	743.0	1253.148681640625	-13.018437385559082	0.0	2056.0	2080.0	2556.0	166.0	175.0	176.0	201.0	1525184918243.0
1970-01-01 00:00:05.050	0.0	-0.25	0.0	0.0	3.0	83.0	-74.0	-34.0	-88.0	98478.0	530.0	0.04129582270979881	-63.2744026184082	0.0	0.0	-9378.0	-303.0	-99687.0	743.0	1253.148681640625	-13.018437385559082	0.0	2056.0	2080.0	2556.0	166.0	175.0	176.0	201.0	1525184918243.0
1970-01-01 00:00:05.100	0.0	-0.25	0.0	0.0	3.0	83.0	-74.0	-34.0	-88.0	98478.0	530.0	0.04129582270979881	-63.2744026184082	0.0	0.0	-9378.0	-303.0	-99687.0	743.0	1253.148681640625	-13.018437385559082	0.0	2056.0	2080.0	2556.0	166.0	175.0	176.0	201.0	1525184918243.0
1970-01-01 00:00:05.150	0.0	-0.25	0.0	0.0	3.0	83.0	-74.0	-34.0	-88.0	98478.0	530.0	0.04129582270979881	-63.2744026184082	0.0	0.0	-9378.0	-303.0	-99687.0	743.0	1253.148681640625	-13.018437385559082	0.0	2056.0	2080.0	2556.0	166.0	175.0	176.0	201.0	1525184918243.0
1970-01-01 00:00:05.200	0.0	-0.25	0.0	0.0	3.0	83.0	-74.0	-34.0	-88.0	98478.0	530.0	0.04129582270979881	-63.2744026184082	0.0	0.0	-9378.0	-303.0	-99687.0	743.0	1253.148681640625	-13.018437385559082	0.0	2056.0	2080.0	2556.0	166.0	175.0	176.0	201.0	1525184918243.0
1970-01-01 00:00:05.250	0.0	-0.25	0.0	0.0	3.0	83.0	-74.0	-34.0	-88.0	98478.0	530.0	0.04129582270979881	-63.2744026184082	0.0	0.0	-9378.0	-303.0	-99687.0	743.0	1253.148681640625	-13.018437385559082	0.0	2056.0	2080.0	2556.0	166.0	175.0	176.0	201.0	1525184918243.0
1970-01-01 00:00:05.300	0.0	-0.25	0.0	0.0	3.0	83.0	-74.0	-34.0	-88.0	98478.0	530.0	0.04129582270979881	-63.2744026184082	0.0	0.0	-9378.0	-303.0	-99687.0	743.0	1253.148681640625	-13.018437385559082	0.0	2056.0	2080.0	2556.0	166.0	175.0	176.0	201.0	1525184918243.0
1970-01-01 00:00:05.350	0.0	-0.25	0.0	0.0	3.0	83.0	-74.0	-34.0	-88.0	98478.0	530.0	0.04129582270979881	-63.2744026184082	0.0	0.0	-9378.0	-303.0	-99687.0	743.0	1253.148681640625	-13.018437385559082	0.0	2056.0	2080.0	2556.0	166.0	175.0	176.0	201.0	1525184918243.0
1970-01-01 00:00:05.400	0.0	-0.25	0.0	0.0	3.0	83.0	-74.0	-34.0	-88.0	98478.0	530.0	0.04129582270979881	-63.2744026184082	0.0	0.0	-9378.0	-303.0	-99687.0	743.0	1253.148681640625	-13.018437385559082	0.0	2056.0	2080.0	2556.0	166.0	175.0	176.0	201.0	1525184918243.0
1970-01-01 00:00:05.450	0.0	-0.25	0.0	0.0	3.0	83.0	-74.0	-34.0	-88.0	98478.0	530.0	0.04129582270979881	-63.2744026184082	0.0	0.0	-9378.0	-303.0	-99687.0	743.0	1253.148681640625	-13.018437385559082	0.0	2056.0	2080.0	2556.0	166.0	175.0	176.0	201.0	1525184918243.0
1970-01-01 00:00:05.500	0.0	-0.25	0.0	0.0	3.0	83.0	-74.0	-34.0	-88.0	98478.0	530.0	0.04129582270979881	-63.2744026184082	0.0	0.0	-9378.0	-303.0	-99687.0	743.0	1253.148681640625	-13.018437385559082	0.0	2056.0	2080.0	2556.0	166.0	175.0	176.0	201.0	1525184918243.0
1970-01-01 00:00:05.550	0.0	-0.25	0.0	0.0	3.0	83.0	-74.0	-34.0	-88.0	98478.0	530.0	0.04129582270979881	-63.2744026184082	0.0	0.0	-9378.0	-303.0	-99687.0	743.0	1253.148681640625	-13.018437385559082	0.0	2056.0	2080.0	2556.0	166.0	175.0	176.0	201.0	1525184918243.0
1970-01-01 00:00:05.600	0.0	-0.25	0.0	0.0	3.0	83.0	-74.0	-34.0	-88.0	98478.0	530.0	0.04129582270979881	-63.2744026184082	0.0	0.0	-9378.0	-303.0	-99687.0	743.0	1253.148681640625	-13.018437385559082	0.0	2056.0	2080.0	2556.0	166.0	175.0	176.0	201.0	1525184918243.0
1970-01-01 00:00:05.650	0.0	-0.25	0.0	0.0	3.0	83.0	-74.0	-34.0	-88.0	98478.0	530.0	0.04129582270979881	-63.2744026184082	0.0	0.0	-9378.0	-303.0	-99687.0	743.0	1253.148681640625	-13.018437385559082	0.0	2056.0	2080.0	2556.0	166.0	175.0	176.0	201.0	1525184918243.0
1970-01-01 00:00:05.700	0.0	-0.25	0.0	0.0	3.0	83.0	-74.0	-34.0	-88.0	98478.0	530.0	0.04129582270979881	-63.2744026184082	0.0	0.0	-9378.0	-303.0	-99687.0	743.0	1253.148681640625	-13.018437385559082	0.0	2056.0	2080.0	2556.0	166.0	175.0	176.0	201.0	1525184918243.0
1970-01-01 00:00:05.750	0.0	-0.25	0.0	0.0	3.0	83.0	-74.0	-34.0	-88.0	98478.0	530.0	0.04129582270979881	-63.2744026184082	0.0	0.0	-9378.0	-303.0	-99687.0	743.0	1253.148681640625	-13.018437385559082	0.0	2056.0	2080.0	2556.0	166.0	175.0	176.0	201.0	1525184918243.0
1970-01-01 00:00:05.800	0.0	-0.25	0.0	0.0	3.0	83.0	-74.0	-34.0	-88.0	98478.0	530.0	0.04129582270979881	-63.2744026184082	0.0	0.0	-9378.0	-303.0	-99687.0	743.0	1253.148681640625	-13.018437385559082	0.0	2056.0	2080.0	2556.0	166.0	175.0	176.0	201.0	1525184918243.0
1970-01-01 00:00:05.850	0.0	-0.25	0.0	0.0	3.0	83.0	-74.0	-34.0	-88.0	98478.0	530.0	0.04129582270979881	-63.2744026184082	0.0	0.0	-9378.0	-303.0	-99687.0	743.0	1253.148681640625	-13.018437385559082	0.0	2056.0	2080.0	2556.0	166.0	175.0	176.0	201.0	1525184918243.0
1970-01-01 00:00:05.900	0.0	0.25	0.0	0.0	4.0	83.0	-80.0	-4.0	-82.0	98472.0	530.0	0.03498201444745064	-43.599308013916016	0.0	0.0	-2045.0	1842.0	-99183.0	781.0	-45.45237350463867	61.10319900512695	0.0	2096.0	2052.0	2580.0	176.0	175.0	181.0	173.0	1527176804016.0
1970-01-01 00:00:05.950	0.0	0.25	0.0	0.0	3.0	83.0	-74.0	-6.0	-84.0	98480.0	530.0	0.034781742841005325	-43.0120964050293	0.0	0.0	-2005.0	1652.0	-99182.0	780.0	-49.82575988769531	68.78285980224611	0.0	2092.0	2016.0	2564.0	183.0	178.0	174.0	171.0	1527193839111.0
1970-01-01 00:00:06.000	0.0	0.25	0.0	0.0	3.0	83.0	-74.0	-6.0	-84.0	98480.0	530.0	0.034781742841005325	-43.0120964050293	0.0	0.0	-2005.0	1652.0	-99182.0	780.0	-49.82575988769531	68.78285980224611	0.0	2092.0	2016.0	2564.0	183.0	178.0	174.0	171.0	1527193839111.0
1970-01-01 00:00:06.050	0.0	0.25	0.0	0.0	3.0	83.0	-77.0	-3.0	-85.0	98478.0	530.0	0.03804957494139671	-40.36187362670898	0.0	0.0	-305.0	1644.0	-98982.0	778.0	-48.37063217163086	102.01151275634766	0.0	1992.0	1996.0	2568.0	185.0	173.0	181.0	169.0	1527242939422.0
1970-01-01 00:00:06.100	0.0	0.25	0.0	0.0	3.0	83.0	-72.0	0.0	-86.0	98463.0	530.0	0.03853219375014305	-38.97777557373047	0.0	0.0	1994.0	1579.0	-98796.0	784.0	-67.93521881103516	120.44820404052734	0.0	1972.0	2020.0	2576.0	181.0	168.0	184.0	169.0	1527810004486.0
1970-01-01 00:00:06.150	0.0	0.25	0.0	0.0	3.0	83.0	-77.0	5.0	-81.0	98501.0	530.0	0.0396278090775013	-36.50446319580078	0.0	0.0	3078.0	1406.0	-98727.0	783.0	-93.21297454833984	133.27976989746094	0.0	2056.0	2072.0	2544.0	181.0	166.0	185.0	172.0	1527824034729.0
1970-01-01 00:00:06.200	0.0	0.25	0.0	0.0	3.0	83.0	-75.0	9.0	-87.0	98496.5	530.0	0.03910086862742901	-34.38928985595703	0.0	0.0	4650.5	1181.5	-98645.0	786.5	-144.62604522705078	133.37744140625	0.0	2016.0	2078.0	2564.0	180.0	166.0	183.0	172.0	1527849084792.5
1970-01-01 00:00:06.250	0.0	0.25	0.0	0.0	3.0	83.0	-75.0	11.0	-83.0	98489.0	530.0	0.04098065569996834	-31.71752166748047	0.0	0.0	5944.0	972.0	-98553.0	785.0	-191.2228546142578	147.64938354492188	0.0	2012.0	2056.0	2568.0	184.0	165.0	185.0	172.0	1527873134887.0
1970-01-01 00:00:06.300	0.0	0.25	0.0	0.0	3.0	83.0	-74.0	15.0	-87.0	98473.5	530.0	0.03992684185504913	-32.199729919433594	0.0	0.0	6787.0	609.5	-98463.0	790.0	-256.48287200927734	153.32908630371094	0.0	2060.0	2130.0	2558.0	184.0	163.0	181.5	172.0	1527895680099.0
1970-01-01 00:00:06.350	0.0	0.25	0.0	0.0	3.0	83.0	-74.0	15.0	-87.0	98473.5	530.0	0.03992684185504913	-32.199729919433594	0.0	0.0	6787.0	609.5	-98463.0	790.0	-256.48287200927734	153.32908630371094	0.0	2060.0	2130.0	2558.0	184.0	163.0	181.5	172.0	1527895680099.0
1970-01-01 00:00:06.400	0.0	0.25	0.0	0.0	3.0	83.0	-71.0	14.0	-86.0	98486.5	530.0	0.041098056361079216	-30.16055965423584	0.0	0.0	7586.5	-295.5	-98348.0	792.5	-372.8393096923828	144.47874450683594	0.0	1992.0	2070.0	2580.0	190.0	164.0	177.0	171.0	1527942275268.0
1970-01-01 00:00:06.450	0.0	0.25	0.0	0.0	3.0	83.0	-72.0	18.0	-84.0	98489.0	530.0	0.04124092496931553	-26.887259483337406	0.0	0.0	7648.0	-723.0	-98244.5	792.5	-458.5478057861328	146.76766204833984	0.0	2030.0	2060.0	2540.0	194.5	162.5	179.0	168.0	1527971835601.5
1970-01-01 00:00:06.500	0.0	0.25	0.0	0.0	3.0	83.0	-67.0	17.0	-87.0	98475.0	530.0	0.043033987283706665	-25.30866622924805	0.0	0.0	7538.0	-1031.0	-98174.0	791.0	-519.306396484375	154.44210815429688	0.0	2096.0	2100.0	2532.0	197.0	164.0	176.0	169.0	1527993380859.0
1970-01-01 00:00:06.550	0.0	0.25	0.0	0.0	3.0	83.0	-68.5	18.5	-85.5	98491.0	530.0	0.04142010025680065	-21.998720169067383	0.0	0.0	7303.5	-1340.5	-98249.5	790.0	-598.0181884765625	134.19511795043945	0.0	2052.0	2098.0	2530.0	193.5	170.5	170.0	173.5	1528017930755.0
1970-01-01 00:00:06.600	0.0	0.25	0.0	0.0	3.0	83.0	-68.5	18.5	-85.5	98491.0	530.0	0.04142010025680065	-21.998720169067383	0.0	0.0	7303.5	-1340.5	-98249.5	790.0	-598.0181884765625	134.19511795043945	0.0	2052.0	2098.0	2530.0	193.5	170.5	170.0	173.5	1528017930755.0
1970-01-01 00:00:06.650	0.0	0.25	0.0	0.0	3.0	83.0	-66.0	17.0	-85.0	98485.0	530.0	0.045084549114108086	-19.351041793823242	0.0	0.0	6888.5	-1588.5	-98276.5	781.5	-682.1632995605469	152.27254486083984	0.0	2104.0	2060.0	2544.0	199.0	171.5	173.0	171.5	1528066028609.5
1970-01-01 00:00:06.700	0.0	0.25	0.0	0.0	3.0	83.0	-67.0	17.0	-81.0	98501.0	530.0	0.04612520709633827	-19.53050422668457	0.0	0.0	6726.0	-1579.0	-98266.0	777.0	-786.0159912109375	141.48147583007812	0.0	2032.0	2128.0	2544.0	200.0	173.0	175.0	170.0	1528091581207.0
1970-01-01 00:00:06.750	0.0	0.25	0.0	0.0	3.0	83.0	-62.0	18.0	-88.0	98469.0	530.0	0.04610642045736313	-11.774563789367676	0.0	0.0	6673.0	-1628.0	-98279.0	771.0	-854.51318359375	127.17858123779295	0.0	2076.0	2124.0	2548.0	202.0	173.0	174.0	173.0	1528106611358.0
1970-01-01 00:00:06.800	0.0	0.25	0.0	0.0	3.0	83.0	-70.0	14.0	-86.0	98483.0	530.0	0.043408732861280434	-7.003237724304199	0.0	0.0	6467.0	-1539.0	-98430.0	764.0	-930.7443237304688	68.16015625	0.0	2136.0	2072.0	2548.0	197.0	183.0	168.0	176.0	1528138676574.0
1970-01-01 00:00:06.850	0.0	0.25	0.0	0.0	3.0	83.0	-70.0	18.0	-86.0	98511.0	529.0	0.04381164163351059	-5.415355205535889	0.0	0.0	6451.0	-1511.0	-98454.0	763.0	-947.8549194335938	62.69572830200195	0.0	2028.0	2028.0	2600.0	196.0	182.0	169.0	176.0	1528143686492.0
1970-01-01 00:00:06.900	0.0	0.25	0.0	0.0	3.0	83.0	-69.0	17.0	-87.0	98511.0	530.0	0.04264731332659722	-1.894934892654419	0.0	0.0	6326.0	-1325.0	-98639.0	757.0	-1049.3123779296877	14.842134475708008	0.0	2168.0	2084.0	2572.0	194.0	185.0	166.0	178.0	1528184771820.0
1970-01-01 00:00:06.950	0.0	0.25	0.0	0.0	3.0	83.0	-69.0	17.0	-87.0	98511.0	530.0	0.04264731332659722	-1.894934892654419	0.0	0.0	6326.0	-1325.0	-98639.0	757.0	-1049.3123779296877	14.842134475708008	0.0	2168.0	2084.0	2572.0	194.0	185.0	166.0	178.0	1528184771820.0
1970-01-01 00:00:07.000	0.0	0.25	0.0	0.0	3.0	83.0	-67.5	20.5	-85.5	98479.0	529.0	0.04302559420466423	2.3116559982299805	0.0	0.0	6527.0	-630.5	-98826.5	744.0	-1135.0130004882812	-18.446805000305176	0.0	2072.0	2120.0	2592.0	200.0	183.0	176.0	171.0	1528239382171.0
1970-01-01 00:00:07.050	0.0	0.25	0.0	0.0	3.0	83.0	-73.0	25.0	-89.0	98480.0	530.0	0.04365652427077293	2.5930063724517822	0.0	0.0	6653.0	-286.0	-98794.0	739.0	-1157.690185546875	-18.768115997314453	0.0	2116.0	2036.0	2612.0	199.0	184.0	178.0	170.0	1528263932250.0
1970-01-01 00:00:07.100	0.0	0.25	0.0	0.0	3.0	83.0	-74.0	12.0	-84.0	98498.0	530.0	0.04410138726234436	3.1745924949646	0.0	0.0	6757.0	-123.0	-98815.0	737.0	-1172.841064453125	-19.250242233276367	0.0	2068.0	2028.0	2600.0	200.0	182.0	178.0	170.0	1528277962524.0
1970-01-01 00:00:07.150	0.0	0.25	0.0	0.0	3.0	83.0	-74.0	12.0	-84.0	98498.0	530.0	0.04410138726234436	3.1745924949646	0.0	0.0	6757.0	-123.0	-98815.0	737.0	-1172.841064453125	-19.250242233276367	0.0	2068.0	2028.0	2600.0	200.0	182.0	178.0	170.0	1528277962524.0
1970-01-01 00:00:07.200	0.0	0.25	0.0	0.0	3.0	83.0	-74.0	12.0	-84.0	98498.0	530.0	0.04410138726234436	3.1745924949646	0.0	0.0	6757.0	-123.0	-98815.0	737.0	-1172.841064453125	-19.250242233276367	0.0	2068.0	2028.0	2600.0	200.0	182.0	178.0	170.0	1528277962524.0
1970-01-01 00:00:07.250	0.0	0.25	0.0	0.0	3.0	83.0	-74.0	12.0	-84.0	98498.0	530.0	0.04410138726234436	3.1745924949646	0.0	0.0	6757.0	-123.0	-98815.0	737.0	-1172.841064453125	-19.250242233276367	0.0	2068.0	2028.0	2600.0	200.0	182.0	178.0	170.0	1528277962524.0
1970-01-01 00:00:07.300	0.0	0.25	0.0	0.0	3.0	83.0	-74.0	12.0	-84.0	98498.0	530.0	0.04410138726234436	3.1745924949646	0.0	0.0	6757.0	-123.0	-98815.0	737.0	-1172.841064453125	-19.250242233276367	0.0	2068.0	2028.0	2600.0	200.0	182.0	178.0	170.0	1528277962524.0
1970-01-01 00:00:07.350	0.0	0.25	0.0	0.0	3.0	83.0	-74.0	12.0	-84.0	98498.0	530.0	0.04410138726234436	3.1745924949646	0.0	0.0	6757.0	-123.0	-98815.0	737.0	-1172.841064453125	-19.250242233276367	0.0	2068.0	2028.0	2600.0	200.0	182.0	178.0	170.0	1528277962524.0
1970-01-01 00:00:07.400	0.0	0.25	0.0	0.0	3.0	83.0	-74.0	12.0	-84.0	98498.0	530.0	0.04410138726234436	3.1745924949646	0.0	0.0	6757.0	-123.0	-98815.0	737.0	-1172.841064453125	-19.250242233276367	0.0	2068.0	2028.0	2600.0	200.0	182.0	178.0	170.0	1528277962524.0
1970-01-01 00:00:07.450	0.0	0.25	0.0	0.0	3.0	83.0	-74.0	12.0	-84.0	98498.0	530.0	0.04410138726234436	3.1745924949646	0.0	0.0	6757.0	-123.0	-98815.0	737.0	-1172.841064453125	-19.250242233276367	0.0	2068.0	2028.0	2600.0	200.0	182.0	178.0	170.0	1528277962524.0
1970-01-01 00:00:07.500	0.0	0.25	0.0	0.0	3.0	83.0	-74.0	12.0	-84.0	98498.0	530.0	0.04410138726234436	3.1745924949646	0.0	0.0	6757.0	-123.0	-98815.0	737.0	-1172.841064453125	-19.250242233276367	0.0	2068.0	2028.0	2600.0	200.0	182.0	178.0	170.0	1528277962524.0
1970-01-01 00:00:07.550	0.0	0.25	0.0	0.0	3.0	83.0	-74.0	12.0	-84.0	98498.0	530.0	0.04410138726234436	3.1745924949646	0.0	0.0	6757.0	-123.0	-98815.0	737.0	-1172.841064453125	-19.250242233276367	0.0	2068.0	2028.0	2600.0	200.0	182.0	178.0	170.0	1528277962524.0
1970-01-01 00:00:07.600	0.0	0.25	0.0	0.0	3.0	83.0	-74.0	12.0	-84.0	98498.0	530.0	0.04410138726234436	3.1745924949646	0.0	0.0	6757.0	-123.0	-98815.0	737.0	-1172.841064453125	-19.250242233276367	0.0	2068.0	2028.0	2600.0	200.0	182.0	178.0	170.0	1528277962524.0
1970-01-01 00:00:07.650	0.0	0.25	0.0	0.0	3.0	83.0	-74.0	12.0	-84.0	98498.0	530.0	0.04410138726234436	3.1745924949646	0.0	0.0	6757.0	-123.0	-98815.0	737.0	-1172.841064453125	-19.250242233276367	0.0	2068.0	2028.0	2600.0	200.0	182.0	178.0	170.0	1528277962524.0
1970-01-01 00:00:07.700	0.0	0.25	0.0	0.0	3.0	83.0	-74.0	12.0	-84.0	98498.0	530.0	0.04410138726234436	3.1745924949646	0.0	0.0	6757.0	-123.0	-98815.0	737.0	-1172.841064453125	-19.250242233276367	0.0	2068.0	2028.0	2600.0	200.0	182.0	178.0	170.0	1528277962524.0
1970-01-01 00:00:07.750	0.0	0.25	0.0	0.0	3.0	83.0	-74.0	12.0	-84.0	98498.0	530.0	0.04410138726234436	3.1745924949646	0.0	0.0	6757.0	-123.0	-98815.0	737.0	-1172.841064453125	-19.250242233276367	0.0	2068.0	2028.0	2600.0	200.0	182.0	178.0	170.0	1528277962524.0
1970-01-01 00:00:07.800	0.0	0.25	0.0	0.0	3.0	83.0	-74.0	12.0	-84.0	98498.0	530.0	0.04410138726234436	3.1745924949646	0.0	0.0	6757.0	-123.0	-98815.0	737.0	-1172.841064453125	-19.250242233276367	0.0	2068.0	2028.0	2600.0	200.0	182.0	178.0	170.0	1528277962524.0
1970-01-01 00:00:07.850	0.0	0.25	0.0	0.0	3.0	83.0	-74.0	12.0	-84.0	98498.0	530.0	0.04410138726234436	3.1745924949646	0.0	0.0	6757.0	-123.0	-98815.0	737.0	-1172.841064453125	-19.250242233276367	0.0	2068.0	2028.0	2600.0	200.0	182.0	178.0	170.0	1528277962524.0
1970-01-01 00:00:07.900	0.0	0.25	0.0	0.0	3.0	83.0	-74.0	12.0	-84.0	98498.0	530.0	0.04410138726234436	3.1745924949646	0.0	0.0	6757.0	-123.0	-98815.0	737.0	-1172.841064453125	-19.250242233276367	0.0	2068.0	2028.0	2600.0	200.0	182.0	178.0	170.0	1528277962524.0
1970-01-01 00:00:07.950	0.0	0.25	0.0	0.0	3.0	83.0	-74.0	12.0	-84.0	98498.0	530.0	0.04410138726234436	3.1745924949646	0.0	0.0	6757.0	-123.0	-98815.0	737.0	-1172.841064453125	-19.250242233276367	0.0	2068.0	2028.0	2600.0	200.0	182.0	178.0	170.0	1528277962524.0
1970-01-01 00:00:08.000	0.0	0.25	0.0	0.0	3.0	83.0	-74.0	12.0	-84.0	98498.0	530.0	0.04410138726234436	3.1745924949646	0.0	0.0	6757.0	-123.0	-98815.0	737.0	-1172.841064453125	-19.250242233276367	0.0	2068.0	2028.0	2600.0	200.0	182.0	178.0	170.0	1528277962524.0
1970-01-01 00:00:08.050	0.0	0.25	0.0	0.0	3.0	83.0	-74.0	12.0	-84.0	98498.0	530.0	0.04410138726234436	3.1745924949646	0.0	0.0	6757.0	-123.0	-98815.0	737.0	-1172.841064453125	-19.250242233276367	0.0	2068.0	2028.0	2600.0	200.0	182.0	178.0	170.0	1528277962524.0
1970-01-01 00:00:08.100	0.0	0.25	0.0	0.0	3.0	83.0	-74.0	12.0	-84.0	98498.0	530.0	0.04410138726234436	3.1745924949646	0.0	0.0	6757.0	-123.0	-98815.0	737.0	-1172.841064453125	-19.250242233276367	0.0	2068.0	2028.0	2600.0	200.0	182.0	178.0	170.0	1528277962524.0
1970-01-01 00:00:08.150	0.0	0.25	0.0	0.0	3.0	83.0	-74.0	12.0	-84.0	98498.0	530.0	0.04410138726234436	3.1745924949646	0.0	0.0	6757.0	-123.0	-98815.0	737.0	-1172.841064453125	-19.250242233276367	0.0	2068.0	2028.0	2600.0	200.0	182.0	178.0	170.0	1528277962524.0
1970-01-01 00:00:08.200	0.0	0.25	0.0	0.0	3.0	83.0	-74.0	12.0	-84.0	98498.0	530.0	0.04410138726234436	3.1745924949646	0.0	0.0	6757.0	-123.0	-98815.0	737.0	-1172.841064453125	-19.250242233276367	0.0	2068.0	2028.0	2600.0	200.0	182.0	178.0	170.0	1528277962524.0
1970-01-01 00:00:08.250	0.0	0.25	0.0	0.0	8.0	82.0	-74.0	-4.0	-82.0	98492.0	529.0	0.0593765527009964	18.116857528686523	0.0	0.0	643.0	528.0	-99405.0	734.0	-223.84051513671875	86.19261169433594	0.0	2056.0	2088.0	2584.0	183.0	175.0	178.0	180.0	1529924140747.0
1970-01-01 00:00:08.300	0.0	0.25	0.0	0.0	8.0	82.0	-74.0	-4.0	-82.0	98492.0	529.0	0.0593765527009964	18.116857528686523	0.0	0.0	643.0	528.0	-99405.0	734.0	-223.84051513671875	86.19261169433594	0.0	2056.0	2088.0	2584.0	183.0	175.0	178.0	180.0	1529924140747.0
1970-01-01 00:00:08.350	0.0	0.25	0.0	0.0	8.0	82.0	-74.0	-4.0	-82.0	98492.0	529.0	0.0593765527009964	18.116857528686523	0.0	0.0	643.0	528.0	-99405.0	734.0	-223.84051513671875	86.19261169433594	0.0	2056.0	2088.0	2584.0	183.0	175.0	178.0	180.0	1529924140747.0
1970-01-01 00:00:08.400	0.0	0.25	0.0	0.0	8.0	82.0	-74.0	-4.0	-82.0	98492.0	529.0	0.0593765527009964	18.116857528686523	0.0	0.0	643.0	528.0	-99405.0	734.0	-223.84051513671875	86.19261169433594	0.0	2056.0	2088.0	2584.0	183.0	175.0	178.0	180.0	1529924140747.0
1970-01-01 00:00:08.450	0.0	0.25	0.0	0.0	3.0	82.0	-73.5	4.5	-89.5	98474.5	529.0	0.06081232242286205	11.966106414794922	0.0	0.0	4365.0	127.0	-99360.0	733.0	-210.26485443115232	88.91383361816406	0.0	2104.0	1966.0	2574.0	189.0	176.0	178.0	176.5	1530013823852.0
1970-01-01 00:00:08.500	0.0	0.25	0.0	0.0	3.0	82.0	-70.0	8.0	-90.0	98472.0	529.0	0.06228562444448471	11.853440284729006	0.0	0.0	5953.0	59.0	-99329.0	732.0	-243.9561309814453	100.11702728271484	0.0	2112.0	1952.0	2596.0	190.0	175.0	180.0	179.0	1530037371398.0
1970-01-01 00:00:08.550	0.0	0.25	0.0	0.0	3.0	82.0	-71.5	12.5	-88.5	98482.5	529.0	0.06259875930845737	11.689949035644531	0.0	0.0	7390.0	-119.0	-99341.5	732.5	-295.3046569824219	99.95052337646484	0.0	2092.0	2030.0	2576.0	186.5	178.0	175.5	184.5	1530061921783.0
1970-01-01 00:00:08.600	0.0	0.25	0.0	0.0	3.0	82.0	-72.0	14.0	-86.0	98471.5	529.0	0.06306206434965134	11.963806629180908	0.0	0.0	8759.5	-199.5	-99362.0	733.5	-357.20277404785156	91.94926834106445	0.0	2092.0	1992.0	2596.0	186.5	178.5	177.0	182.5	1530090981826.0
1970-01-01 00:00:08.650	0.0	0.25	0.0	0.0	3.0	82.0	-70.0	16.0	-88.0	98472.0	529.0	0.06362805515527725	11.455055236816404	0.0	0.0	9529.0	-216.0	-99331.0	737.0	-406.4953002929688	98.38832092285156	0.0	2060.0	2016.0	2576.0	189.0	176.0	180.0	179.0	1530113527099.0
1970-01-01 00:00:08.700	0.0	0.25	0.0	0.0	3.0	82.0	-71.0	25.0	-83.0	98511.0	529.0	0.06533511728048325	13.730077743530273	0.0	0.0	9896.0	-257.0	-99331.0	736.0	-476.27374267578125	95.7073745727539	0.0	2048.0	2040.0	2576.0	190.0	178.0	178.0	181.0	1530128557495.0
1970-01-01 00:00:08.750	0.0	0.25	0.0	0.0	3.0	82.0	-69.0	19.0	-85.0	98460.0	529.0	0.06594957411289215	14.813562393188475	0.0	0.0	10422.0	-381.0	-99376.0	736.0	-621.171875	76.10051727294922	0.0	2060.0	2036.0	2568.0	192.0	182.0	174.0	182.0	1530174652465.0
1970-01-01 00:00:08.800	0.0	0.25	0.0	0.0	3.0	82.0	-70.0	20.0	-84.0	98472.0	529.0	0.06511574238538742	13.983927726745605	0.0	0.0	10423.0	-467.0	-99391.0	735.0	-654.73486328125	68.85227966308594	0.0	2028.0	2048.0	2580.0	191.0	183.0	174.0	184.0	1530191687683.0
1970-01-01 00:00:08.850	0.0	0.25	0.0	0.0	3.0	82.0	-70.0	20.0	-84.0	98472.0	529.0	0.06511574238538742	13.983927726745605	0.0	0.0	10423.0	-467.0	-99391.0	735.0	-654.73486328125	68.85227966308594	0.0	2028.0	2048.0	2580.0	191.0	183.0	174.0	184.0	1530191687683.0
1970-01-01 00:00:08.900	0.0	0.25	0.0	0.0	3.0	82.0	-72.0	22.0	-82.0	98463.0	529.0	0.06591729819774628	14.36738109588623	0.0	0.0	10295.0	-477.0	-99390.0	735.0	-749.6514282226562	65.92575836181639	0.0	2128.0	2044.0	2560.0	194.0	182.0	174.0	180.0	1530218742919.0
1970-01-01 00:00:08.950	0.0	0.25	0.0	0.0	3.0	82.0	-67.0	23.0	-87.0	98489.0	529.0	0.0660705417394638	14.826210021972654	0.0	0.0	9930.0	-399.0	-99347.0	731.0	-855.8377685546875	37.599769592285156	0.0	2016.0	1968.0	2604.0	197.0	184.0	174.0	179.0	1530262832885.0
1970-01-01 00:00:09.000	0.0	0.25	0.0	0.0	3.0	82.0	-69.0	21.0	-87.0	98478.0	529.0	0.06603938341140747	14.846709251403807	0.0	0.0	9743.0	-445.0	-99324.0	728.0	-884.3504028320312	56.30062484741211	0.0	2004.0	1968.0	2592.0	199.0	185.0	171.0	180.0	1530277863128.0
1970-01-01 00:00:09.050	0.0	0.25	0.0	0.0	3.0	82.0	-65.0	27.0	-87.0	98478.0	529.0	0.06605507433414459	14.99795627593994	0.0	0.0	9237.0	-549.0	-99404.0	726.0	-949.1087646484376	29.789825439453125	0.0	2088.0	2028.0	2572.0	196.0	190.0	168.0	181.0	1530306923278.0
1970-01-01 00:00:09.100	0.0	0.25	0.0	0.0	3.0	82.0	-70.0	24.0	-84.0	98489.0	529.0	0.06654264777898787	15.20539093017578	0.0	0.0	8905.0	-620.0	-99457.0	722.0	-999.2546997070312	19.326631546020508	0.0	2140.0	2112.0	2596.0	197.0	191.0	168.0	182.0	1530336983489.0
1970-01-01 00:00:09.150	0.0	0.25	0.0	0.0	3.0	82.0	-69.0	25.0	-87.0	98454.0	529.0	0.06678524613380432	14.880562782287598	0.0	0.0	8674.0	-668.0	-99579.0	721.0	-1056.76513671875	21.906301498413086	0.0	2116.0	2008.0	2604.0	193.0	195.0	164.0	184.0	1530903048767.0
1970-01-01 00:00:09.200	0.0	0.25	0.0	0.0	3.0	82.0	-69.0	25.0	-87.0	98454.0	529.0	0.06678524613380432	14.880562782287598	0.0	0.0	8674.0	-668.0	-99579.0	721.0	-1056.76513671875	21.906301498413086	0.0	2116.0	2008.0	2604.0	193.0	195.0	164.0	184.0	1530903048767.0
1970-01-01 00:00:09.250	0.0	0.25	0.0	0.0	3.0	82.0	-66.0	20.0	-86.0	98499.0	529.0	0.06711211055517198	14.479755401611328	0.0	0.0	8404.0	-573.0	-99550.0	721.0	-1096.5323486328123	27.63774490356445	0.0	2048.0	2120.0	2596.0	196.0	193.0	165.0	180.0	1530935113769.0
1970-01-01 00:00:09.300	0.0	0.25	0.0	0.0	3.0	82.0	-66.0	20.0	-86.0	98499.0	529.0	0.06711211055517198	14.479755401611328	0.0	0.0	8404.0	-573.0	-99550.0	721.0	-1096.5323486328123	27.63774490356445	0.0	2048.0	2120.0	2596.0	196.0	193.0	165.0	180.0	1530935113769.0
1970-01-01 00:00:09.350	0.0	0.25	0.0	0.0	3.0	82.0	-67.0	23.0	-89.0	98478.0	529.0	0.06678682565689087	13.83644962310791	0.0	0.0	8079.0	-63.0	-99624.0	723.0	-1162.37939453125	11.185317039489746	0.0	2128.0	2120.0	2580.0	193.0	194.0	168.0	175.0	1530982209167.0
1970-01-01 00:00:09.400	0.0	0.25	0.0	0.0	3.0	82.0	-74.0	22.0	-86.0	98466.0	529.0	0.07167108356952667	20.647062301635746	0.0	0.0	8456.0	429.0	-99716.0	734.0	-1327.6416015625	19.557565689086914	0.0	2188.0	1996.0	2568.0	188.0	190.0	166.0	176.0	1531028304260.0
1970-01-01 00:00:09.450	0.0	0.25	0.0	0.0	3.0	82.0	-71.0	23.0	-87.0	98478.0	529.0	0.0721152275800705	20.476200103759766	0.0	0.0	8615.0	502.0	-99776.0	737.0	-1300.5076904296875	17.868024826049805	0.0	2152.0	2004.0	2584.0	187.0	192.0	163.0	177.0	1531043334350.0
1970-01-01 00:00:09.500	0.0	0.25	0.0	0.0	3.0	82.0	-71.0	23.0	-87.0	98478.0	529.0	0.0721152275800705	20.476200103759766	0.0	0.0	8615.0	502.0	-99776.0	737.0	-1300.5076904296875	17.868024826049805	0.0	2152.0	2004.0	2584.0	187.0	192.0	163.0	177.0	1531043334350.0
1970-01-01 00:00:09.550	0.0	0.25	0.0	0.0	3.0	82.0	-71.0	23.0	-87.0	98478.0	529.0	0.0721152275800705	20.476200103759766	0.0	0.0	8615.0	502.0	-99776.0	737.0	-1300.5076904296875	17.868024826049805	0.0	2152.0	2004.0	2584.0	187.0	192.0	163.0	177.0	1531043334350.0
1970-01-01 00:00:09.600	0.0	0.25	0.0	0.0	3.0	82.0	-71.0	23.0	-87.0	98478.0	529.0	0.0721152275800705	20.476200103759766	0.0	0.0	8615.0	502.0	-99776.0	737.0	-1300.5076904296875	17.868024826049805	0.0	2152.0	2004.0	2584.0	187.0	192.0	163.0	177.0	1531043334350.0
1970-01-01 00:00:09.650	0.0	0.25	0.0	0.0	3.0	82.0	-71.0	23.0	-87.0	98478.0	529.0	0.0721152275800705	20.476200103759766	0.0	0.0	8615.0	502.0	-99776.0	737.0	-1300.5076904296875	17.868024826049805	0.0	2152.0	2004.0	2584.0	187.0	192.0	163.0	177.0	1531043334350.0
1970-01-01 00:00:09.700	0.0	0.25	0.0	0.0	3.0	82.0	-71.0	23.0	-87.0	98478.0	529.0	0.0721152275800705	20.476200103759766	0.0	0.0	8615.0	502.0	-99776.0	737.0	-1300.5076904296875	17.868024826049805	0.0	2152.0	2004.0	2584.0	187.0	192.0	163.0	177.0	1531043334350.0
1970-01-01 00:00:09.750	0.0	0.25	0.0	0.0	3.0	82.0	-71.0	23.0	-87.0	98478.0	529.0	0.0721152275800705	20.476200103759766	0.0	0.0	8615.0	502.0	-99776.0	737.0	-1300.5076904296875	17.868024826049805	0.0	2152.0	2004.0	2584.0	187.0	192.0	163.0	177.0	1531043334350.0
1970-01-01 00:00:09.800	0.0	0.25	0.0	0.0	3.0	82.0	-71.0	23.0	-87.0	98478.0	529.0	0.0721152275800705	20.476200103759766	0.0	0.0	8615.0	502.0	-99776.0	737.0	-1300.5076904296875	17.868024826049805	0.0	2152.0	2004.0	2584.0	187.0	192.0	163.0	177.0	1531043334350.0
1970-01-01 00:00:09.850	0.0	0.25	0.0	0.0	3.0	82.0	-71.0	23.0	-87.0	98478.0	529.0	0.0721152275800705	20.476200103759766	0.0	0.0	8615.0	502.0	-99776.0	737.0	-1300.5076904296875	17.868024826049805	0.0	2152.0	2004.0	2584.0	187.0	192.0	163.0	177.0	1531043334350.0
1970-01-01 00:00:09.900	0.0	0.25	0.0	0.0	3.0	82.0	-71.0	23.0	-87.0	98478.0	529.0	0.0721152275800705	20.476200103759766	0.0	0.0	8615.0	502.0	-99776.0	737.0	-1300.5076904296875	17.868024826049805	0.0	2152.0	2004.0	2584.0	187.0	192.0	163.0	177.0	1531043334350.0
1970-01-01 00:00:09.950	0.0	0.25	0.0	0.0	3.0	82.0	-71.0	23.0	-87.0	98478.0	529.0	0.0721152275800705	20.476200103759766	0.0	0.0	8615.0	502.0	-99776.0	737.0	-1300.5076904296875	17.868024826049805	0.0	2152.0	2004.0	2584.0	187.0	192.0	163.0	177.0	1531043334350.0
1970-01-01 00:00:10.000	0.0	0.25	0.0	0.0	3.0	82.0	-71.0	23.0	-87.0	98478.0	529.0	0.0721152275800705	20.476200103759766	0.0	0.0	8615.0	502.0	-99776.0	737.0	-1300.5076904296875	17.868024826049805	0.0	2152.0	2004.0	2584.0	187.0	192.0	163.0	177.0	1531043334350.0
1970-01-01 00:00:10.050	0.0	0.25	0.0	0.0	3.0	82.0	-71.0	23.0	-87.0	98478.0	529.0	0.0721152275800705	20.476200103759766	0.0	0.0	8615.0	502.0	-99776.0	737.0	-1300.5076904296875	17.868024826049805	0.0	2152.0	2004.0	2584.0	187.0	192.0	163.0	177.0	1531043334350.0
1970-01-01 00:00:10.100	0.0	0.25	0.0	0.0	3.0	82.0	-71.0	23.0	-87.0	98478.0	529.0	0.0721152275800705	20.476200103759766	0.0	0.0	8615.0	502.0	-99776.0	737.0	-1300.5076904296875	17.868024826049805	0.0	2152.0	2004.0	2584.0	187.0	192.0	163.0	177.0	1531043334350.0
1970-01-01 00:00:10.150	0.0	0.25	0.0	0.0	3.0	82.0	-71.0	23.0	-87.0	98478.0	529.0	0.0721152275800705	20.476200103759766	0.0	0.0	8615.0	502.0	-99776.0	737.0	-1300.5076904296875	17.868024826049805	0.0	2152.0	2004.0	2584.0	187.0	192.0	163.0	177.0	1531043334350.0
1970-01-01 00:00:10.200	0.0	0.25	0.0	0.0	3.0	82.0	-71.0	23.0	-87.0	98478.0	529.0	0.0721152275800705	20.476200103759766	0.0	0.0	8615.0	502.0	-99776.0	737.0	-1300.5076904296875	17.868024826049805	0.0	2152.0	2004.0	2584.0	187.0	192.0	163.0	177.0	1531043334350.0
1970-01-01 00:00:10.250	0.0	0.25	0.0	0.0	3.0	82.0	-71.0	23.0	-87.0	98478.0	529.0	0.0721152275800705	20.476200103759766	0.0	0.0	8615.0	502.0	-99776.0	737.0	-1300.5076904296875	17.868024826049805	0.0	2152.0	2004.0	2584.0	187.0	192.0	163.0	177.0	1531043334350.0
1970-01-01 00:00:10.300	0.0	0.25	0.0	0.0	3.0	82.0	-71.0	23.0	-87.0	98478.0	529.0	0.0721152275800705	20.476200103759766	0.0	0.0	8615.0	502.0	-99776.0	737.0	-1300.5076904296875	17.868024826049805	0.0	2152.0	2004.0	2584.0	187.0	192.0	163.0	177.0	1531043334350.0
1970-01-01 00:00:10.350	0.0	0.25	0.0	0.0	3.0	82.0	-71.0	23.0	-87.0	98478.0	529.0	0.0721152275800705	20.476200103759766	0.0	0.0	8615.0	502.0	-99776.0	737.0	-1300.5076904296875	17.868024826049805	0.0	2152.0	2004.0	2584.0	187.0	192.0	163.0	177.0	1531043334350.0
1970-01-01 00:00:10.400	0.0	0.25	0.0	0.0	3.0	82.0	-71.0	23.0	-87.0	98478.0	529.0	0.0721152275800705	20.476200103759766	0.0	0.0	8615.0	502.0	-99776.0	737.0	-1300.5076904296875	17.868024826049805	0.0	2152.0	2004.0	2584.0	187.0	192.0	163.0	177.0	1531043334350.0
1970-01-01 00:00:10.450	0.0	0.25	0.0	0.0	3.0	82.0	-71.0	23.0	-87.0	98478.0	529.0	0.0721152275800705	20.476200103759766	0.0	0.0	8615.0	502.0	-99776.0	737.0	-1300.5076904296875	17.868024826049805	0.0	2152.0	2004.0	2584.0	187.0	192.0	163.0	177.0	1531043334350.0
1970-01-01 00:00:10.500	0.0	0.25	0.0	0.0	3.0	82.0	-71.0	23.0	-87.0	98478.0	529.0	0.0721152275800705	20.476200103759766	0.0	0.0	8615.0	502.0	-99776.0	737.0	-1300.5076904296875	17.868024826049805	0.0	2152.0	2004.0	2584.0	187.0	192.0	163.0	177.0	1531043334350.0
1970-01-01 00:00:10.550	0.0	0.25	0.0	0.0	3.0	82.0	-71.0	23.0	-87.0	98478.0	529.0	0.0721152275800705	20.476200103759766	0.0	0.0	8615.0	502.0	-99776.0	737.0	-1300.5076904296875	17.868024826049805	0.0	2152.0	2004.0	2584.0	187.0	192.0	163.0	177.0	1531043334350.0
1970-01-01 00:00:10.600	0.0	0.25	0.0	0.0	3.0	82.0	-71.0	23.0	-87.0	98478.0	529.0	0.0721152275800705	20.476200103759766	0.0	0.0	8615.0	502.0	-99776.0	737.0	-1300.5076904296875	17.868024826049805	0.0	2152.0	2004.0	2584.0	187.0	192.0	163.0	177.0	1531043334350.0
1970-01-01 00:00:10.650	0.0	0.25	0.0	0.0	3.0	82.0	-71.0	23.0	-87.0	98478.0	529.0	0.0721152275800705	20.476200103759766	0.0	0.0	8615.0	502.0	-99776.0	737.0	-1300.5076904296875	17.868024826049805	0.0	2152.0	2004.0	2584.0	187.0	192.0	163.0	177.0	1531043334350.0
1970-01-01 00:00:10.700	0.0	0.25	0.0	0.0	3.0	82.0	-71.0	23.0	-87.0	98478.0	529.0	0.0721152275800705	20.476200103759766	0.0	0.0	8615.0	502.0	-99776.0	737.0	-1300.5076904296875	17.868024826049805	0.0	2152.0	2004.0	2584.0	187.0	192.0	163.0	177.0	1531043334350.0
1970-01-01 00:00:10.750	0.0	0.25	0.0	0.0	3.0	82.0	-71.0	23.0	-87.0	98478.0	529.0	0.0721152275800705	20.476200103759766	0.0	0.0	8615.0	502.0	-99776.0	737.0	-1300.5076904296875	17.868024826049805	0.0	2152.0	2004.0	2584.0	187.0	192.0	163.0	177.0	1531043334350.0
1970-01-01 00:00:10.800	0.0	0.25	0.0	0.0	3.0	82.0	-71.0	23.0	-87.0	98478.0	529.0	0.0721152275800705	20.476200103759766	0.0	0.0	8615.0	502.0	-99776.0	737.0	-1300.5076904296875	17.868024826049805	0.0	2152.0	2004.0	2584.0	187.0	192.0	163.0	177.0	1531043334350.0
1970-01-01 00:00:10.850	0.0	0.25	0.0	0.0	3.0	82.0	-71.0	23.0	-87.0	98478.0	529.0	0.0721152275800705	20.476200103759766	0.0	0.0	8615.0	502.0	-99776.0	737.0	-1300.5076904296875	17.868024826049805	0.0	2152.0	2004.0	2584.0	187.0	192.0	163.0	177.0	1531043334350.0
1970-01-01 00:00:10.900	0.0	0.25	0.0	0.0	3.0	82.0	-71.0	23.0	-87.0	98478.0	529.0	0.0721152275800705	20.476200103759766	0.0	0.0	8615.0	502.0	-99776.0	737.0	-1300.5076904296875	17.868024826049805	0.0	2152.0	2004.0	2584.0	187.0	192.0	163.0	177.0	1531043334350.0
1970-01-01 00:00:10.950	0.0	0.25	0.0	0.0	3.0	82.0	-71.0	23.0	-87.0	98478.0	529.0	0.0721152275800705	20.476200103759766	0.0	0.0	8615.0	502.0	-99776.0	737.0	-1300.5076904296875	17.868024826049805	0.0	2152.0	2004.0	2584.0	187.0	192.0	163.0	177.0	1531043334350.0
1970-01-01 00:00:11.000	0.0	0.25	0.0	0.0	3.0	82.0	-71.0	23.0	-87.0	98478.0	529.0	0.0721152275800705	20.476200103759766	0.0	0.0	8615.0	502.0	-99776.0	737.0	-1300.5076904296875	17.868024826049805	0.0	2152.0	2004.0	2584.0	187.0	192.0	163.0	177.0	1531043334350.0
1970-01-01 00:00:11.050	0.0	0.25	0.0	0.0	3.0	82.0	-71.0	23.0	-87.0	98478.0	529.0	0.0721152275800705	20.476200103759766	0.0	0.0	8615.0	502.0	-99776.0	737.0	-1300.5076904296875	17.868024826049805	0.0	2152.0	2004.0	2584.0	187.0	192.0	163.0	177.0	1531043334350.0
1970-01-01 00:00:11.100	0.0	0.25	0.0	0.0	3.0	82.0	-71.0	23.0	-87.0	98478.0	529.0	0.0721152275800705	20.476200103759766	0.0	0.0	8615.0	502.0	-99776.0	737.0	-1300.5076904296875	17.868024826049805	0.0	2152.0	2004.0	2584.0	187.0	192.0	163.0	177.0	1531043334350.0
1970-01-01 00:00:11.150	0.0	-0.25	0.0	0.0	3.0	82.0	-80.0	4.0	-90.0	98466.0	529.0	0.07173588871955873	-24.02306365966797	0.0	0.0	2979.0	681.0	-100096.0	749.0	-3.865091800689697	-17.714786529541016	0.0	2044.0	2072.0	2572.0	173.0	177.0	179.0	193.0	1532932009643.0
1970-01-01 00:00:11.200	0.0	-0.25	0.0	0.0	3.0	82.0	-81.0	-3.0	-91.0	98475.0	529.0	0.07421503216028214	-25.66912078857422	0.0	0.0	1294.0	273.0	-100055.0	745.0	-7.811169624328612	0.16450783610343933	0.0	2040.0	2044.0	2584.0	184.0	172.0	182.0	183.0	1532964074554.0
1970-01-01 00:00:11.250	0.0	-0.25	0.0	0.0	3.0	82.0	-74.0	6.0	-94.0	98502.0	529.0	0.07467442005872726	-26.655902862548828	0.0	0.0	9.0	-101.0	-100168.0	743.0	1.3357471227645874	5.096376419067383	0.0	2096.0	2008.0	2576.0	178.0	181.0	170.0	192.0	1532981109649.0
1970-01-01 00:00:11.300	0.0	-0.25	0.0	0.0	3.0	82.0	-77.0	-7.0	-97.0	98480.0	529.0	0.07525782287120819	-29.398475646972656	0.0	0.0	-2492.0	-243.0	-100217.0	740.0	40.037357330322266	-5.348387718200684	0.0	2088.0	2000.0	2564.0	182.0	181.0	173.0	185.0	1533013174865.0
1970-01-01 00:00:11.350	0.0	-0.25	0.0	0.0	3.0	82.0	-75.0	-12.0	-91.0	98471.5	529.0	0.07678958028554916	-30.552804946899414	0.0	0.0	-4011.5	-252.0	-100201.0	737.5	80.35908317565918	-4.69209361076355	0.0	2078.0	1996.0	2566.0	184.5	179.5	175.0	184.5	1533036722640.5
1970-01-01 00:00:11.400	0.0	-0.25	0.0	0.0	3.0	82.0	-76.0	-8.0	-96.0	98505.0	529.0	0.07717118412256241	-31.25893211364746	0.0	0.0	-5219.0	-208.0	-100176.0	736.0	126.1716766357422	-4.333762645721436	0.0	2088.0	1992.0	2560.0	182.0	182.0	173.0	186.0	1533059270172.0
1970-01-01 00:00:11.450	0.0	-0.25	0.0	0.0	3.0	82.0	-76.0	-8.0	-96.0	98505.0	529.0	0.07717118412256241	-31.25893211364746	0.0	0.0	-5219.0	-208.0	-100176.0	736.0	126.1716766357422	-4.333762645721436	0.0	2088.0	1992.0	2560.0	182.0	182.0	173.0	186.0	1533059270172.0
1970-01-01 00:00:11.500	0.0	-0.25	0.0	0.0	3.0	82.0	-76.5	-12.5	-96.5	98482.0	529.0	0.07993938028812408	-34.69328498840332	0.0	0.0	-6923.0	-92.0	-100121.5	736.0	269.357421875	0.17173135280609153	0.0	2088.0	2026.0	2570.0	184.5	177.0	179.0	182.0	1533113880675.5
1970-01-01 00:00:11.550	0.0	-0.25	0.0	0.0	3.0	82.0	-81.0	-17.0	-91.0	98466.0	529.0	0.08121149241924286	-36.15898132324219	0.0	0.0	-7375.0	-146.0	-100097.0	738.0	337.35565185546875	0.3839657306671143	0.0	2044.0	1964.0	2560.0	181.0	178.0	175.0	186.0	1533138430572.0
1970-01-01 00:00:11.600	0.0	-0.25	0.0	0.0	3.0	82.0	-77.0	-19.0	-96.0	98492.5	529.0	0.08224370330572128	-37.68704414367676	0.0	0.0	-7495.5	-74.0	-100128.0	736.5	408.6042938232422	-6.304577827453613	0.0	2074.0	2046.0	2572.0	179.0	178.5	175.5	189.0	1533160475997.0
1970-01-01 00:00:11.650	0.0	-0.25	0.0	0.0	3.0	82.0	-75.0	-19.0	-91.0	98486.0	529.0	0.08405235409736632	-39.15818786621094	0.0	0.0	-7495.0	-14.0	-100127.0	736.0	474.59747314453125	-4.017381668090819	0.0	2032.0	1964.0	2572.0	179.0	176.0	179.0	189.0	1533185526367.0
1970-01-01 00:00:11.700	0.0	-0.25	0.0	0.0	3.0	82.0	-75.5	-16.5	-94.5	98484.5	528.5	0.08440567925572395	-40.41032791137695	0.0	0.0	-7368.5	-31.5	-100118.5	736.0	536.1660766601564	-4.973973631858826	0.0	2028.0	1956.0	2570.0	178.0	175.0	177.5	191.5	1533209076049.5
1970-01-01 00:00:11.750	0.0	-0.25	0.0	0.0	3.0	82.0	-76.5	-18.5	-93.5	98494.5	528.5	0.08467676118016243	-42.012712478637695	0.0	0.0	-7131.5	78.0	-100126.0	738.0	598.5309143066406	-16.425119400024414	0.0	2012.0	2002.0	2582.0	175.0	173.5	181.0	189.0	1533239136382.5
1970-01-01 00:00:11.800	0.0	-0.25	0.0	0.0	3.0	82.0	-76.5	-18.5	-93.5	98494.5	528.5	0.08467676118016243	-42.012712478637695	0.0	0.0	-7131.5	78.0	-100126.0	738.0	598.5309143066406	-16.425119400024414	0.0	2012.0	2002.0	2582.0	175.0	173.5	181.0	189.0	1533239136382.5
1970-01-01 00:00:11.850	0.0	-0.25	0.0	0.0	3.0	82.0	-78.0	-22.0	-90.0	98499.0	529.0	0.08884183317422867	-48.15682601928711	0.0	0.0	-6566.0	267.0	-100102.0	736.0	802.7742309570312	-19.949161529541016	0.0	2052.0	1988.0	2564.0	175.0	171.0	186.0	190.0	1533295751678.0
1970-01-01 00:00:11.900	0.0	-0.25	0.0	0.0	3.0	82.0	-78.0	-22.0	-90.0	98499.0	529.0	0.08884183317422867	-48.15682601928711	0.0	0.0	-6566.0	267.0	-100102.0	736.0	802.7742309570312	-19.949161529541016	0.0	2052.0	1988.0	2564.0	175.0	171.0	186.0	190.0	1533295751678.0
1970-01-01 00:00:11.950	0.0	-0.25	0.0	0.0	3.0	82.0	-78.0	-18.0	-90.0	98508.0	528.0	0.08853660523891449	-50.83824157714844	0.0	0.0	-6237.0	199.0	-100089.0	738.0	885.092529296875	-57.99193954467773	0.0	2032.0	2040.0	2560.0	170.0	172.0	182.0	196.0	1533341846984.0
1970-01-01 00:00:12.000	0.0	-0.25	0.0	0.0	3.0	82.0	-78.0	-18.0	-90.0	98508.0	528.0	0.08853660523891449	-50.83824157714844	0.0	0.0	-6237.0	199.0	-100089.0	738.0	885.092529296875	-57.99193954467773	0.0	2032.0	2040.0	2560.0	170.0	172.0	182.0	196.0	1533341846984.0
1970-01-01 00:00:12.050	0.0	-0.25	0.0	0.0	3.0	82.0	-72.0	-16.0	-92.0	98486.0	528.0	0.0887117087841034	-52.04452514648438	0.0	0.0	-6086.0	14.0	-100037.0	732.0	921.0342407226562	-46.73932647705078	0.0	2024.0	2076.0	2564.0	174.0	171.0	184.0	197.0	1533387942016.0
1970-01-01 00:00:12.100	0.0	-0.25	0.0	0.0	3.0	82.0	-76.0	-17.0	-96.0	98486.5	528.5	0.08867505937814713	-52.32724571228027	0.0	0.0	-6094.0	15.0	-100056.0	729.5	1048.1454467773438	-10.658249616622925	0.0	2030.0	2044.0	2562.0	172.0	172.5	185.0	198.5	1533677987228.0
1970-01-01 00:00:12.150	0.0	-0.25	0.0	0.0	3.0	82.0	-76.0	-17.0	-96.0	98486.5	528.5	0.08867505937814713	-52.32724571228027	0.0	0.0	-6094.0	15.0	-100056.0	729.5	1048.1454467773438	-10.658249616622925	0.0	2030.0	2044.0	2562.0	172.0	172.5	185.0	198.5	1533677987228.0
1970-01-01 00:00:12.200	0.0	-0.25	0.0	0.0	3.0	82.0	-72.5	-18.5	-92.5	98493.0	528.0	0.10026391968131065	-58.49028778076172	0.0	0.0	-6094.5	-177.0	-99956.0	726.5	1199.0304565429688	-1.9791746139526367	0.0	1982.0	1992.0	2590.0	174.5	168.5	188.0	196.5	1533991582504.0
1970-01-01 00:00:12.250	0.0	-0.25	0.0	0.0	3.0	82.0	-76.0	-22.0	-94.0	98496.0	528.0	0.10235009342432022	-60.90832901000977	0.0	0.0	-6083.0	-185.0	-99888.0	725.0	1230.5980224609375	-17.24492073059082	0.0	1976.0	2012.0	2588.0	178.0	165.0	190.0	195.0	1534014127777.0
1970-01-01 00:00:12.300	0.0	-0.25	0.0	0.0	3.0	82.0	-77.0	-27.0	-91.0	98496.0	528.0	0.10291403532028197	-62.1130256652832	0.0	0.0	-6199.0	-240.0	-99844.0	722.0	1245.128662109375	-56.894287109375	0.0	2016.0	2040.0	2580.0	173.0	171.0	187.0	199.0	1534046192749.0
1970-01-01 00:00:12.350	0.0	-0.25	0.0	0.0	3.0	82.0	-77.0	-27.0	-91.0	98496.0	528.0	0.10291403532028197	-62.1130256652832	0.0	0.0	-6199.0	-240.0	-99844.0	722.0	1245.128662109375	-56.894287109375	0.0	2016.0	2040.0	2580.0	173.0	171.0	187.0	199.0	1534046192749.0
1970-01-01 00:00:12.400	0.0	-0.25	0.0	0.0	3.0	82.0	-77.0	-27.0	-91.0	98496.0	528.0	0.10291403532028197	-62.1130256652832	0.0	0.0	-6199.0	-240.0	-99844.0	722.0	1245.128662109375	-56.894287109375	0.0	2016.0	2040.0	2580.0	173.0	171.0	187.0	199.0	1534046192749.0
1970-01-01 00:00:12.450	0.0	-0.25	0.0	0.0	3.0	82.0	-73.0	-23.0	-93.0	98481.5	528.0	0.09940563514828682	-64.70007705688477	0.0	0.0	-6613.5	-261.0	-99787.5	721.5	1266.1469116210938	-72.86224365234375	0.0	1964.0	2076.0	2584.0	174.0	169.0	187.5	197.0	1534114833236.0
1970-01-01 00:00:12.500	0.0	-0.25	0.0	0.0	3.0	82.0	-71.0	-25.0	-91.0	98496.0	528.0	0.09915318340063096	-64.93941497802734	0.0	0.0	-6762.0	-255.0	-99736.0	723.0	1264.0491943359375	-88.63956451416016	0.0	2056.0	2024.0	2564.0	175.0	168.0	188.0	195.0	1534134373748.0
1970-01-01 00:00:12.550	0.0	-0.25	0.0	0.0	3.0	82.0	-71.0	-25.0	-91.0	98496.0	528.0	0.09915318340063096	-64.93941497802734	0.0	0.0	-6762.0	-255.0	-99736.0	723.0	1264.0491943359375	-88.63956451416016	0.0	2056.0	2024.0	2564.0	175.0	168.0	188.0	195.0	1534134373748.0
1970-01-01 00:00:12.600	0.0	-0.25	0.0	0.0	3.0	82.0	-71.0	-25.0	-91.0	98496.0	528.0	0.09915318340063096	-64.93941497802734	0.0	0.0	-6762.0	-255.0	-99736.0	723.0	1264.0491943359375	-88.63956451416016	0.0	2056.0	2024.0	2564.0	175.0	168.0	188.0	195.0	1534134373748.0
1970-01-01 00:00:12.650	0.0	-0.25	0.0	0.0	3.0	82.0	-71.0	-25.0	-91.0	98496.0	528.0	0.09915318340063096	-64.93941497802734	0.0	0.0	-6762.0	-255.0	-99736.0	723.0	1264.0491943359375	-88.63956451416016	0.0	2056.0	2024.0	2564.0	175.0	168.0	188.0	195.0	1534134373748.0
1970-01-01 00:00:12.700	0.0	-0.25	0.0	0.0	3.0	82.0	-71.0	-25.0	-91.0	98496.0	528.0	0.09915318340063096	-64.93941497802734	0.0	0.0	-6762.0	-255.0	-99736.0	723.0	1264.0491943359375	-88.63956451416016	0.0	2056.0	2024.0	2564.0	175.0	168.0	188.0	195.0	1534134373748.0
1970-01-01 00:00:12.750	0.0	-0.25	0.0	0.0	3.0	82.0	-71.0	-25.0	-91.0	98496.0	528.0	0.09915318340063096	-64.93941497802734	0.0	0.0	-6762.0	-255.0	-99736.0	723.0	1264.0491943359375	-88.63956451416016	0.0	2056.0	2024.0	2564.0	175.0	168.0	188.0	195.0	1534134373748.0
1970-01-01 00:00:12.800	0.0	-0.25	0.0	0.0	3.0	82.0	-71.0	-25.0	-91.0	98496.0	528.0	0.09915318340063096	-64.93941497802734	0.0	0.0	-6762.0	-255.0	-99736.0	723.0	1264.0491943359375	-88.63956451416016	0.0	2056.0	2024.0	2564.0	175.0	168.0	188.0	195.0	1534134373748.0
1970-01-01 00:00:12.850	0.0	-0.25	0.0	0.0	3.0	82.0	-71.0	-25.0	-91.0	98496.0	528.0	0.09915318340063096	-64.93941497802734	0.0	0.0	-6762.0	-255.0	-99736.0	723.0	1264.0491943359375	-88.63956451416016	0.0	2056.0	2024.0	2564.0	175.0	168.0	188.0	195.0	1534134373748.0
1970-01-01 00:00:12.900	0.0	-0.25	0.0	0.0	3.0	82.0	-71.0	-25.0	-91.0	98496.0	528.0	0.09915318340063096	-64.93941497802734	0.0	0.0	-6762.0	-255.0	-99736.0	723.0	1264.0491943359375	-88.63956451416016	0.0	2056.0	2024.0	2564.0	175.0	168.0	188.0	195.0	1534134373748.0
1970-01-01 00:00:12.950	0.0	-0.25	0.0	0.0	3.0	82.0	-71.0	-25.0	-91.0	98496.0	528.0	0.09915318340063096	-64.93941497802734	0.0	0.0	-6762.0	-255.0	-99736.0	723.0	1264.0491943359375	-88.63956451416016	0.0	2056.0	2024.0	2564.0	175.0	168.0	188.0	195.0	1534134373748.0
1970-01-01 00:00:13.000	0.0	-0.25	0.0	0.0	3.0	82.0	-71.0	-25.0	-91.0	98496.0	528.0	0.09915318340063096	-64.93941497802734	0.0	0.0	-6762.0	-255.0	-99736.0	723.0	1264.0491943359375	-88.63956451416016	0.0	2056.0	2024.0	2564.0	175.0	168.0	188.0	195.0	1534134373748.0
1970-01-01 00:00:13.050	0.0	-0.25	0.0	0.0	3.0	82.0	-71.0	-25.0	-91.0	98496.0	528.0	0.09915318340063096	-64.93941497802734	0.0	0.0	-6762.0	-255.0	-99736.0	723.0	1264.0491943359375	-88.63956451416016	0.0	2056.0	2024.0	2564.0	175.0	168.0	188.0	195.0	1534134373748.0
1970-01-01 00:00:13.100	0.0	-0.25	0.0	0.0	3.0	82.0	-71.0	-25.0	-91.0	98496.0	528.0	0.09915318340063096	-64.93941497802734	0.0	0.0	-6762.0	-255.0	-99736.0	723.0	1264.0491943359375	-88.63956451416016	0.0	2056.0	2024.0	2564.0	175.0	168.0	188.0	195.0	1534134373748.0
1970-01-01 00:00:13.150	0.0	-0.25	0.0	0.0	3.0	82.0	-71.0	-25.0	-91.0	98496.0	528.0	0.09915318340063096	-64.93941497802734	0.0	0.0	-6762.0	-255.0	-99736.0	723.0	1264.0491943359375	-88.63956451416016	0.0	2056.0	2024.0	2564.0	175.0	168.0	188.0	195.0	1534134373748.0
1970-01-01 00:00:13.200	0.0	-0.25	0.0	0.0	3.0	82.0	-71.0	-25.0	-91.0	98496.0	528.0	0.09915318340063096	-64.93941497802734	0.0	0.0	-6762.0	-255.0	-99736.0	723.0	1264.0491943359375	-88.63956451416016	0.0	2056.0	2024.0	2564.0	175.0	168.0	188.0	195.0	1534134373748.0
1970-01-01 00:00:13.250	0.0	-0.25	0.0	0.0	3.0	82.0	-71.0	-25.0	-91.0	98496.0	528.0	0.09915318340063096	-64.93941497802734	0.0	0.0	-6762.0	-255.0	-99736.0	723.0	1264.0491943359375	-88.63956451416016	0.0	2056.0	2024.0	2564.0	175.0	168.0	188.0	195.0	1534134373748.0
1970-01-01 00:00:13.300	0.0	-0.25	0.0	0.0	3.0	82.0	-71.0	-25.0	-91.0	98496.0	528.0	0.09915318340063096	-64.93941497802734	0.0	0.0	-6762.0	-255.0	-99736.0	723.0	1264.0491943359375	-88.63956451416016	0.0	2056.0	2024.0	2564.0	175.0	168.0	188.0	195.0	1534134373748.0
1970-01-01 00:00:13.350	0.0	-0.25	0.0	0.0	3.0	82.0	-71.0	-25.0	-91.0	98496.0	528.0	0.09915318340063096	-64.93941497802734	0.0	0.0	-6762.0	-255.0	-99736.0	723.0	1264.0491943359375	-88.63956451416016	0.0	2056.0	2024.0	2564.0	175.0	168.0	188.0	195.0	1534134373748.0
1970-01-01 00:00:13.400	0.0	-0.25	0.0	0.0	3.0	82.0	-71.0	-25.0	-91.0	98496.0	528.0	0.09915318340063096	-64.93941497802734	0.0	0.0	-6762.0	-255.0	-99736.0	723.0	1264.0491943359375	-88.63956451416016	0.0	2056.0	2024.0	2564.0	175.0	168.0	188.0	195.0	1534134373748.0
1970-01-01 00:00:13.450	0.0	-0.25	0.0	0.0	3.0	82.0	-71.0	-25.0	-91.0	98496.0	528.0	0.09915318340063096	-64.93941497802734	0.0	0.0	-6762.0	-255.0	-99736.0	723.0	1264.0491943359375	-88.63956451416016	0.0	2056.0	2024.0	2564.0	175.0	168.0	188.0	195.0	1534134373748.0
1970-01-01 00:00:13.500	0.0	-0.25	0.0	0.0	3.0	82.0	-71.0	-25.0	-91.0	98496.0	528.0	0.09915318340063096	-64.93941497802734	0.0	0.0	-6762.0	-255.0	-99736.0	723.0	1264.0491943359375	-88.63956451416016	0.0	2056.0	2024.0	2564.0	175.0	168.0	188.0	195.0	1534134373748.0
1970-01-01 00:00:13.550	0.0	-0.25	0.0	0.0	3.0	82.0	-71.0	-25.0	-91.0	98496.0	528.0	0.09915318340063096	-64.93941497802734	0.0	0.0	-6762.0	-255.0	-99736.0	723.0	1264.0491943359375	-88.63956451416016	0.0	2056.0	2024.0	2564.0	175.0	168.0	188.0	195.0	1534134373748.0
1970-01-01 00:00:13.600	0.0	-0.25	0.0	0.0	3.0	82.0	-71.0	-25.0	-91.0	98496.0	528.0	0.09915318340063096	-64.93941497802734	0.0	0.0	-6762.0	-255.0	-99736.0	723.0	1264.0491943359375	-88.63956451416016	0.0	2056.0	2024.0	2564.0	175.0	168.0	188.0	195.0	1534134373748.0
1970-01-01 00:00:13.650	0.0	-0.25	0.0	0.0	3.0	82.0	-71.0	-25.0	-91.0	98496.0	528.0	0.09915318340063096	-64.93941497802734	0.0	0.0	-6762.0	-255.0	-99736.0	723.0	1264.0491943359375	-88.63956451416016	0.0	2056.0	2024.0	2564.0	175.0	168.0	188.0	195.0	1534134373748.0
1970-01-01 00:00:13.700	0.0	-0.25	0.0	0.0	3.0	82.0	-71.0	-25.0	-91.0	98496.0	528.0	0.09915318340063096	-64.93941497802734	0.0	0.0	-6762.0	-255.0	-99736.0	723.0	1264.0491943359375	-88.63956451416016	0.0	2056.0	2024.0	2564.0	175.0	168.0	188.0	195.0	1534134373748.0
1970-01-01 00:00:13.750	0.0	-0.25	0.0	0.0	3.0	81.0	-68.0	0.0	-90.0	98472.0	528.0	0.10716499388217926	-69.41220855712889	0.0	0.0	-895.0	235.0	-99853.0	734.0	251.8040771484375	34.068702697753906	0.0	2056.0	2056.0	2584.0	175.0	170.0	187.0	195.0	1535275612365.0
1970-01-01 00:00:13.800	0.0	-0.25	0.0	0.0	3.0	81.0	-75.0	-9.0	-93.0	98490.0	528.0	0.10419181734323503	-69.57460784912111	0.0	0.0	-2582.0	290.0	-99816.0	733.0	233.5170745849609	25.81283187866211	0.0	2140.0	2028.0	2584.0	177.0	171.0	186.0	191.0	1535304672302.0
1970-01-01 00:00:13.850	0.0	-0.25	0.0	0.0	3.0	81.0	-74.0	-8.0	-90.0	98487.0	528.0	0.10355284810066223	-69.63226318359375	0.0	0.0	-3809.0	277.0	-99814.0	731.0	234.73789978027344	19.241676330566406	0.0	2116.0	2020.0	2568.0	180.0	173.0	185.0	189.0	1535321707397.0
1970-01-01 00:00:13.900	0.0	-0.25	0.0	0.0	3.0	81.0	-74.0	-8.0	-90.0	98487.0	528.0	0.10355284810066223	-69.63226318359375	0.0	0.0	-3809.0	277.0	-99814.0	731.0	234.73789978027344	19.241676330566406	0.0	2116.0	2020.0	2568.0	180.0	173.0	185.0	189.0	1535321707397.0
1970-01-01 00:00:13.950	0.0	-0.25	0.0	0.0	3.0	81.0	-74.0	-8.0	-90.0	98487.0	528.0	0.10355284810066223	-69.63226318359375	0.0	0.0	-3809.0	277.0	-99814.0	731.0	234.73789978027344	19.241676330566406	0.0	2116.0	2020.0	2568.0	180.0	173.0	185.0	189.0	1535321707397.0
1970-01-01 00:00:14.000	0.0	-0.25	0.0	0.0	3.0	81.0	-72.0	-22.0	-94.0	98460.0	528.0	0.09960313886404036	-67.62356567382811	0.0	0.0	-9272.0	422.0	-99670.0	726.0	358.3459167480469	24.703887939453125	0.0	2052.0	2024.0	2576.0	185.0	177.0	186.0	188.0	1535414897979.0
1970-01-01 00:00:14.050	0.0	-0.25	0.0	0.0	3.0	81.0	-72.0	-22.0	-94.0	98460.0	528.0	0.09960313886404036	-67.62356567382811	0.0	0.0	-9272.0	422.0	-99670.0	726.0	358.3459167480469	24.703887939453125	0.0	2052.0	2024.0	2576.0	185.0	177.0	186.0	188.0	1535414897979.0
1970-01-01 00:00:14.100	0.0	-0.25	0.0	0.0	3.0	81.0	-73.0	-27.0	-87.0	98484.0	528.0	0.0972803235054016	-67.67824554443361	0.0	0.0	-10128.0	363.0	-99638.0	727.0	481.01934814453125	19.9637393951416	0.0	2092.0	2056.0	2592.0	182.0	175.0	187.0	190.0	1535463998229.0
1970-01-01 00:00:14.150	0.0	-0.25	0.0	0.0	3.0	81.0	-74.0	-26.0	-84.0	98475.0	528.0	0.09756851941347122	-68.07872009277344	0.0	0.0	-10247.0	325.0	-99622.0	730.0	522.7896118164061	19.238452911376953	0.0	2116.0	2056.0	2604.0	179.0	174.0	186.0	191.0	1536013028259.0
1970-01-01 00:00:14.200	0.0	-0.25	0.0	0.0	3.0	81.0	-69.0	-23.0	-89.0	98455.5	528.0	0.09665697067975998	-67.40323257446289	0.0	0.0	-10300.5	300.5	-99600.5	731.5	573.9231262207031	26.426480293273926	0.0	2116.0	2052.0	2590.0	179.0	172.5	186.5	191.0	1536036576125.5
1970-01-01 00:00:14.250	0.0	-0.25	0.0	0.0	3.0	81.0	-69.0	-23.0	-89.0	98455.5	528.0	0.09665697067975998	-67.40323257446289	0.0	0.0	-10300.5	300.5	-99600.5	731.5	573.9231262207031	26.426480293273926	0.0	2116.0	2052.0	2590.0	179.0	172.5	186.5	191.0	1536036576125.5
1970-01-01 00:00:14.300	0.0	-0.25	0.0	0.0	3.0	81.0	-71.0	-27.0	-89.0	98478.0	528.0	0.09449293091893196	-67.3006477355957	0.0	0.0	-10171.0	236.5	-99552.5	736.5	680.8293151855469	23.183161735534668	0.0	1930.0	2028.0	2590.0	177.5	169.5	188.0	191.0	1536087178878.5
1970-01-01 00:00:14.350	0.0	-0.25	0.0	0.0	3.0	81.0	-70.0	-24.0	-92.0	98460.0	528.0	0.09354335814714433	-67.23574066162111	0.0	0.0	-10095.0	184.0	-99502.0	738.0	740.8468627929688	26.01821136474609	0.0	1984.0	2020.0	2600.0	180.0	168.0	189.0	189.0	1536112229614.0
1970-01-01 00:00:14.400	0.0	-0.25	0.0	0.0	3.0	81.0	-70.5	-29.5	-87.5	98470.5	528.0	0.09201819822192192	-67.28924560546875	0.0	0.0	-10077.5	79.5	-99455.0	740.5	789.573486328125	24.4839506149292	0.0	2022.0	2024.0	2588.0	178.0	168.5	186.5	191.5	1536134776717.5
1970-01-01 00:00:14.450	0.0	-0.25	0.0	0.0	3.0	81.0	-70.5	-29.5	-87.5	98470.5	528.0	0.09201819822192192	-67.28924560546875	0.0	0.0	-10077.5	79.5	-99455.0	740.5	789.573486328125	24.4839506149292	0.0	2022.0	2024.0	2588.0	178.0	168.5	186.5	191.5	1536134776717.5
1970-01-01 00:00:14.500	0.0	-0.25	0.0	0.0	3.0	81.0	-70.5	-29.5	-87.5	98470.5	528.0	0.09201819822192192	-67.28924560546875	0.0	0.0	-10077.5	79.5	-99455.0	740.5	789.573486328125	24.4839506149292	0.0	2022.0	2024.0	2588.0	178.0	168.5	186.5	191.5	1536134776717.5
1970-01-01 00:00:14.550	0.0	-0.25	0.0	0.0	3.0	81.0	-67.0	-29.0	-85.0	98481.0	528.0	0.09395818412303923	-69.44762420654297	0.0	0.0	-9803.0	-261.0	-99519.0	744.0	1027.81640625	23.501338958740234	0.0	2056.0	2104.0	2560.0	175.0	170.0	184.0	196.0	1536204419647.0
1970-01-01 00:00:14.600	0.0	-0.25	0.0	0.0	3.0	81.0	-66.0	-28.0	-92.0	98490.0	528.0	0.0947376787662506	-69.21615600585939	0.0	0.0	-9665.0	-288.0	-99505.0	745.0	1063.418701171875	40.69363403320313	0.0	1972.0	2088.0	2576.0	178.0	166.0	187.0	194.0	1536236484588.0
1970-01-01 00:00:14.650	0.0	-0.25	0.0	0.0	3.0	81.0	-66.0	-28.0	-92.0	98490.0	528.0	0.0947376787662506	-69.21615600585939	0.0	0.0	-9665.0	-288.0	-99505.0	745.0	1063.418701171875	40.69363403320313	0.0	1972.0	2088.0	2576.0	178.0	166.0	187.0	194.0	1536236484588.0
1970-01-01 00:00:14.700	0.0	-0.25	0.0	0.0	3.0	81.0	-70.0	-22.0	-84.0	98511.0	528.0	0.09497144818305968	-69.55361938476561	0.0	0.0	-9461.0	-339.0	-99648.0	753.0	1095.950439453125	59.5177001953125	0.0	2032.0	2076.0	2572.0	172.0	168.0	184.0	195.0	1536285584960.0
1970-01-01 00:00:14.750	0.0	-0.25	0.0	0.0	3.0	81.0	-71.0	-29.0	-91.0	98493.0	528.0	0.09482679516077043	-69.59446716308594	0.0	0.0	-9394.0	-343.0	-99674.0	755.0	1116.7181396484377	53.35356903076172	0.0	2004.0	2108.0	2564.0	171.0	167.0	185.0	194.0	1536300615447.0
1970-01-01 00:00:14.800	0.0	-0.25	0.0	0.0	3.0	81.0	-72.0	-26.0	-88.0	98499.0	528.0	0.09450139850378036	-69.72150421142578	0.0	0.0	-9194.0	-301.0	-99818.0	758.0	1169.7457275390625	50.06130599975586	0.0	1972.0	2096.0	2572.0	166.0	171.0	182.0	200.0	1536332680114.0
1970-01-01 00:00:14.850	0.0	-0.25	0.0	0.0	3.0	81.0	-64.5	-27.5	-89.5	98482.5	528.0	0.09453349560499191	-69.70294189453125	0.0	0.0	-9225.0	-143.0	-99797.0	759.5	1241.9425048828125	13.65362797677517	0.0	1992.0	2044.0	2580.0	170.5	168.5	185.0	194.0	1536354225463.5
1970-01-01 00:00:14.900	0.0	-0.25	0.0	0.0	3.0	81.0	-64.5	-27.5	-89.5	98482.5	528.0	0.09453349560499191	-69.70294189453125	0.0	0.0	-9225.0	-143.0	-99797.0	759.5	1241.9425048828125	13.65362797677517	0.0	1992.0	2044.0	2580.0	170.5	168.5	185.0	194.0	1536354225463.5
1970-01-01 00:00:14.950	0.0	-0.25	0.0	0.0	3.0	81.0	-64.5	-27.5	-89.5	98482.5	528.0	0.09453349560499191	-69.70294189453125	0.0	0.0	-9225.0	-143.0	-99797.0	759.5	1241.9425048828125	13.65362797677517	0.0	1992.0	2044.0	2580.0	170.5	168.5	185.0	194.0	1536354225463.5
1970-01-01 00:00:15.000	0.0	-0.25	0.0	0.0	3.0	81.0	-64.5	-27.5	-89.5	98482.5	528.0	0.09453349560499191	-69.70294189453125	0.0	0.0	-9225.0	-143.0	-99797.0	759.5	1241.9425048828125	13.65362797677517	0.0	1992.0	2044.0	2580.0	170.5	168.5	185.0	194.0	1536354225463.5
1970-01-01 00:00:15.050	0.0	-0.25	0.0	0.0	3.0	81.0	-64.5	-27.5	-89.5	98482.5	528.0	0.09453349560499191	-69.70294189453125	0.0	0.0	-9225.0	-143.0	-99797.0	759.5	1241.9425048828125	13.65362797677517	0.0	1992.0	2044.0	2580.0	170.5	168.5	185.0	194.0	1536354225463.5
1970-01-01 00:00:15.100	0.0	-0.25	0.0	0.0	3.0	81.0	-64.5	-27.5	-89.5	98482.5	528.0	0.09453349560499191	-69.70294189453125	0.0	0.0	-9225.0	-143.0	-99797.0	759.5	1241.9425048828125	13.65362797677517	0.0	1992.0	2044.0	2580.0	170.5	168.5	185.0	194.0	1536354225463.5
1970-01-01 00:00:15.150	0.0	-0.25	0.0	0.0	3.0	81.0	-64.5	-27.5	-89.5	98482.5	528.0	0.09453349560499191	-69.70294189453125	0.0	0.0	-9225.0	-143.0	-99797.0	759.5	1241.9425048828125	13.65362797677517	0.0	1992.0	2044.0	2580.0	170.5	168.5	185.0	194.0	1536354225463.5
1970-01-01 00:00:15.200	0.0	-0.25	0.0	0.0	3.0	81.0	-64.5	-27.5	-89.5	98482.5	528.0	0.09453349560499191	-69.70294189453125	0.0	0.0	-9225.0	-143.0	-99797.0	759.5	1241.9425048828125	13.65362797677517	0.0	1992.0	2044.0	2580.0	170.5	168.5	185.0	194.0	1536354225463.5
1970-01-01 00:00:15.250	0.0	-0.25	0.0	0.0	3.0	81.0	-64.5	-27.5	-89.5	98482.5	528.0	0.09453349560499191	-69.70294189453125	0.0	0.0	-9225.0	-143.0	-99797.0	759.5	1241.9425048828125	13.65362797677517	0.0	1992.0	2044.0	2580.0	170.5	168.5	185.0	194.0	1536354225463.5
1970-01-01 00:00:15.300	0.0	-0.25	0.0	0.0	3.0	81.0	-64.5	-27.5	-89.5	98482.5	528.0	0.09453349560499191	-69.70294189453125	0.0	0.0	-9225.0	-143.0	-99797.0	759.5	1241.9425048828125	13.65362797677517	0.0	1992.0	2044.0	2580.0	170.5	168.5	185.0	194.0	1536354225463.5
1970-01-01 00:00:15.350	0.0	-0.25	0.0	0.0	3.0	81.0	-64.5	-27.5	-89.5	98482.5	528.0	0.09453349560499191	-69.70294189453125	0.0	0.0	-9225.0	-143.0	-99797.0	759.5	1241.9425048828125	13.65362797677517	0.0	1992.0	2044.0	2580.0	170.5	168.5	185.0	194.0	1536354225463.5
1970-01-01 00:00:15.400	0.0	-0.25	0.0	0.0	3.0	81.0	-64.5	-27.5	-89.5	98482.5	528.0	0.09453349560499191	-69.70294189453125	0.0	0.0	-9225.0	-143.0	-99797.0	759.5	1241.9425048828125	13.65362797677517	0.0	1992.0	2044.0	2580.0	170.5	168.5	185.0	194.0	1536354225463.5
1970-01-01 00:00:15.450	0.0	-0.25	0.0	0.0	3.0	81.0	-64.5	-27.5	-89.5	98482.5	528.0	0.09453349560499191	-69.70294189453125	0.0	0.0	-9225.0	-143.0	-99797.0	759.5	1241.9425048828125	13.65362797677517	0.0	1992.0	2044.0	2580.0	170.5	168.5	185.0	194.0	1536354225463.5
1970-01-01 00:00:15.500	0.0	-0.25	0.0	0.0	3.0	81.0	-64.5	-27.5	-89.5	98482.5	528.0	0.09453349560499191	-69.70294189453125	0.0	0.0	-9225.0	-143.0	-99797.0	759.5	1241.9425048828125	13.65362797677517	0.0	1992.0	2044.0	2580.0	170.5	168.5	185.0	194.0	1536354225463.5
1970-01-01 00:00:15.550	0.0	-0.25	0.0	0.0	3.0	81.0	-64.5	-27.5	-89.5	98482.5	528.0	0.09453349560499191	-69.70294189453125	0.0	0.0	-9225.0	-143.0	-99797.0	759.5	1241.9425048828125	13.65362797677517	0.0	1992.0	2044.0	2580.0	170.5	168.5	185.0	194.0	1536354225463.5
1970-01-01 00:00:15.600	0.0	-0.25	0.0	0.0	3.0	81.0	-64.5	-27.5	-89.5	98482.5	528.0	0.09453349560499191	-69.70294189453125	0.0	0.0	-9225.0	-143.0	-99797.0	759.5	1241.9425048828125	13.65362797677517	0.0	1992.0	2044.0	2580.0	170.5	168.5	185.0	194.0	1536354225463.5
1970-01-01 00:00:15.650	0.0	-0.25	0.0	0.0	3.0	81.0	-64.5	-27.5	-89.5	98482.5	528.0	0.09453349560499191	-69.70294189453125	0.0	0.0	-9225.0	-143.0	-99797.0	759.5	1241.9425048828125	13.65362797677517	0.0	1992.0	2044.0	2580.0	170.5	168.5	185.0	194.0	1536354225463.5
1970-01-01 00:00:15.700	0.0	-0.25	0.0	0.0	3.0	81.0	-64.5	-27.5	-89.5	98482.5	528.0	0.09453349560499191	-69.70294189453125	0.0	0.0	-9225.0	-143.0	-99797.0	759.5	1241.9425048828125	13.65362797677517	0.0	1992.0	2044.0	2580.0	170.5	168.5	185.0	194.0	1536354225463.5
1970-01-01 00:00:15.750	0.0	-0.25	0.0	0.0	3.0	81.0	-64.5	-27.5	-89.5	98482.5	528.0	0.09453349560499191	-69.70294189453125	0.0	0.0	-9225.0	-143.0	-99797.0	759.5	1241.9425048828125	13.65362797677517	0.0	1992.0	2044.0	2580.0	170.5	168.5	185.0	194.0	1536354225463.5
1970-01-01 00:00:15.800	0.0	-0.25	0.0	0.0	3.0	81.0	-64.5	-27.5	-89.5	98482.5	528.0	0.09453349560499191	-69.70294189453125	0.0	0.0	-9225.0	-143.0	-99797.0	759.5	1241.9425048828125	13.65362797677517	0.0	1992.0	2044.0	2580.0	170.5	168.5	185.0	194.0	1536354225463.5
1970-01-01 00:00:15.850	0.0	-0.25	0.0	0.0	3.0	81.0	-64.5	-27.5	-89.5	98482.5	528.0	0.09453349560499191	-69.70294189453125	0.0	0.0	-9225.0	-143.0	-99797.0	759.5	1241.9425048828125	13.65362797677517	0.0	1992.0	2044.0	2580.0	170.5	168.5	185.0	194.0	1536354225463.5
1970-01-01 00:00:15.900	0.0	-0.25	0.0	0.0	3.0	81.0	-64.5	-27.5	-89.5	98482.5	528.0	0.09453349560499191	-69.70294189453125	0.0	0.0	-9225.0	-143.0	-99797.0	759.5	1241.9425048828125	13.65362797677517	0.0	1992.0	2044.0	2580.0	170.5	168.5	185.0	194.0	1536354225463.5
1970-01-01 00:00:15.950	0.0	-0.25	0.0	0.0	3.0	81.0	-64.5	-27.5	-89.5	98482.5	528.0	0.09453349560499191	-69.70294189453125	0.0	0.0	-9225.0	-143.0	-99797.0	759.5	1241.9425048828125	13.65362797677517	0.0	1992.0	2044.0	2580.0	170.5	168.5	185.0	194.0	1536354225463.5
1970-01-01 00:00:16.000	0.0	-0.25	0.0	0.0	3.0	81.0	-64.5	-27.5	-89.5	98482.5	528.0	0.09453349560499191	-69.70294189453125	0.0	0.0	-9225.0	-143.0	-99797.0	759.5	1241.9425048828125	13.65362797677517	0.0	1992.0	2044.0	2580.0	170.5	168.5	185.0	194.0	1536354225463.5
1970-01-01 00:00:16.050	0.0	-0.25	0.0	0.0	3.0	81.0	-64.5	-27.5	-89.5	98482.5	528.0	0.09453349560499191	-69.70294189453125	0.0	0.0	-9225.0	-143.0	-99797.0	759.5	1241.9425048828125	13.65362797677517	0.0	1992.0	2044.0	2580.0	170.5	168.5	185.0	194.0	1536354225463.5
1970-01-01 00:00:16.100	0.0	-0.25	0.0	0.0	3.0	81.0	-64.5	-27.5	-89.5	98482.5	528.0	0.09453349560499191	-69.70294189453125	0.0	0.0	-9225.0	-143.0	-99797.0	759.5	1241.9425048828125	13.65362797677517	0.0	1992.0	2044.0	2580.0	170.5	168.5	185.0	194.0	1536354225463.5
1970-01-01 00:00:16.150	0.0	-0.25	0.0	0.0	3.0	81.0	-64.5	-27.5	-89.5	98482.5	528.0	0.09453349560499191	-69.70294189453125	0.0	0.0	-9225.0	-143.0	-99797.0	759.5	1241.9425048828125	13.65362797677517	0.0	1992.0	2044.0	2580.0	170.5	168.5	185.0	194.0	1536354225463.5
1970-01-01 00:00:16.200	0.0	0.25	0.0	0.0	3.0	81.0	-80.0	-2.0	-88.0	98466.0	528.0	0.0834965705871582	-68.77595520019531	0.0	0.0	118.0	143.0	-99910.0	734.0	107.21062469482422	-3.9632413387298575	0.0	2004.0	2048.0	2580.0	176.0	175.0	184.0	193.0	1538089084503.0
1970-01-01 00:00:16.250	0.0	0.25	0.0	0.0	3.0	81.0	-71.0	5.0	-91.0	98475.0	528.0	0.08260028809309006	-67.34846496582031	0.0	0.0	100.0	182.0	-99846.0	735.0	88.44222259521484	3.613511562347412	0.0	2020.0	2100.0	2580.0	186.0	173.0	184.0	181.0	1538103114471.0
1970-01-01 00:00:16.300	0.0	0.25	0.0	0.0	3.0	81.0	-66.0	2.0	-86.0	98478.0	528.0	0.08170446753501892	-66.04775238037111	0.0	0.0	540.0	147.0	-99759.0	731.0	59.88650894165039	8.477494239807129	0.0	1996.0	2096.0	2596.0	185.0	176.0	181.0	184.0	1538135179840.0
1970-01-01 00:00:16.350	0.0	0.25	0.0	0.0	3.0	81.0	-75.0	7.0	-89.0	98493.0	528.0	0.08016766607761383	-65.12018585205078	0.0	0.0	1862.0	109.0	-99747.0	730.0	26.674257278442386	5.422059059143066	0.0	2040.0	2056.0	2596.0	183.0	175.0	180.0	186.0	1538167244812.0
1970-01-01 00:00:16.400	0.0	0.25	0.0	0.0	3.0	81.0	-72.0	8.0	-88.0	98490.0	528.0	0.08025316894054413	-63.83745574951172	0.0	0.0	2704.0	164.0	-99623.0	730.0	8.89648723602295	6.87434196472168	0.0	2132.0	1980.0	2604.0	185.0	172.0	184.0	183.0	1538184280090.0
1970-01-01 00:00:16.450	0.0	0.25	0.0	0.0	3.0	81.0	-68.5	10.5	-83.5	98479.5	528.0	0.07857926562428474	-62.753211975097656	0.0	0.0	3856.5	177.0	-99558.0	730.5	-33.63397216796875	8.473936557769775	0.0	2118.0	1992.0	2570.0	182.0	173.5	180.5	185.5	1538208830352.0
1970-01-01 00:00:16.500	0.0	0.25	0.0	0.0	3.0	81.0	-71.0	12.0	-88.0	98470.5	528.0	0.07679272815585136	-61.827816009521484	0.0	0.0	5047.5	227.0	-99550.5	732.0	-91.55432510375977	-0.2575075626373291	0.0	2120.0	2024.0	2582.0	181.0	175.0	179.5	185.0	1538238390243.0
1970-01-01 00:00:16.550	0.0	0.25	0.0	0.0	3.0	81.0	-68.0	16.0	-84.0	98505.0	528.0	0.07652905583381653	-60.769691467285156	0.0	0.0	5688.0	239.0	-99481.0	733.0	-139.33673095703122	6.545339584350586	0.0	2016.0	2064.0	2580.0	186.0	171.0	182.0	180.0	1538260435272.0
1970-01-01 00:00:16.600	0.0	0.25	0.0	0.0	3.0	81.0	-80.0	18.0	-88.0	98493.0	528.0	0.0731005147099495	-58.19239807128906	0.0	0.0	6396.0	323.0	-99486.0	735.0	-241.6656951904297	5.159881114959717	0.0	2096.0	2044.0	2580.0	181.0	176.0	179.0	183.0	1538292500823.0
1970-01-01 00:00:16.650	0.0	0.25	0.0	0.0	3.0	81.0	-80.0	18.0	-88.0	98493.0	528.0	0.0731005147099495	-58.19239807128906	0.0	0.0	6396.0	323.0	-99486.0	735.0	-241.6656951904297	5.159881114959717	0.0	2096.0	2044.0	2580.0	181.0	176.0	179.0	183.0	1538292500823.0
1970-01-01 00:00:16.700	0.0	0.25	0.0	0.0	3.0	81.0	-69.0	21.0	-87.0	98490.0	528.0	0.07309471070766449	-57.27400207519531	0.0	0.0	6668.0	271.0	-99446.0	736.0	-319.8659362792969	11.572830200195312	0.0	2092.0	2044.0	2548.0	185.0	176.0	179.0	180.0	1538326571044.0
1970-01-01 00:00:16.750	0.0	0.25	0.0	0.0	3.0	81.0	-69.0	21.0	-87.0	98490.0	528.0	0.07309471070766449	-57.27400207519531	0.0	0.0	6668.0	271.0	-99446.0	736.0	-319.8659362792969	11.572830200195312	0.0	2092.0	2044.0	2548.0	185.0	176.0	179.0	180.0	1538326571044.0
1970-01-01 00:00:16.800	0.0	0.25	0.0	0.0	3.0	80.0	-69.0	21.0	-89.0	98490.0	528.0	0.06737916171550751	-51.04059600830078	0.0	0.0	6674.0	218.0	-99337.0	737.0	-528.3467407226561	17.671459197998047	0.0	2152.0	2088.0	2560.0	191.0	178.0	177.0	175.0	1538387696136.0
1970-01-01 00:00:16.850	0.0	0.25	0.0	0.0	3.0	80.0	-69.0	21.0	-89.0	98490.0	528.0	0.06737916171550751	-51.04059600830078	0.0	0.0	6674.0	218.0	-99337.0	737.0	-528.3467407226561	17.671459197998047	0.0	2152.0	2088.0	2560.0	191.0	178.0	177.0	175.0	1538387696136.0
1970-01-01 00:00:16.900	0.0	0.25	0.0	0.0	3.0	80.0	-72.0	18.0	-86.0	98466.0	528.0	0.06727565079927443	-50.20350646972656	0.0	0.0	6400.0	136.0	-99361.0	735.0	-591.2763061523438	17.099973678588867	0.0	2104.0	2104.0	2556.0	193.0	180.0	175.0	176.0	1538419761352.0
1970-01-01 00:00:16.950	0.0	0.25	0.0	0.0	3.0	80.0	-71.0	21.0	-83.0	98484.0	528.0	0.0646718330681324	-42.86001396179199	0.0	0.0	6182.5	95.5	-99322.5	733.0	-711.1810607910156	44.734561920166016	0.0	2096.0	2108.0	2592.0	194.0	181.5	174.5	175.5	1538456836639.0
1970-01-01 00:00:17.000	0.0	0.25	0.0	0.0	3.0	80.0	-71.0	19.0	-85.0	98493.0	528.0	0.06530532985925674	-42.10477066040039	0.0	0.0	6057.0	54.0	-99280.0	732.0	-769.2427978515625	52.44536209106445	0.0	2020.0	2072.0	2596.0	191.0	186.0	171.0	178.0	1538478881774.0
1970-01-01 00:00:17.050	0.0	0.25	0.0	0.0	3.0	80.0	-69.5	19.5	-83.5	98490.0	528.0	0.0655575804412365	-39.12801551818848	0.0	0.0	5992.0	-14.0	-99265.5	730.0	-806.0726318359375	59.60943794250488	0.0	2050.0	2104.0	2594.0	192.0	185.5	171.5	178.0	1538503431915.0
1970-01-01 00:00:17.100	0.0	0.25	0.0	0.0	3.0	80.0	-69.5	19.5	-83.5	98490.0	528.0	0.0655575804412365	-39.12801551818848	0.0	0.0	5992.0	-14.0	-99265.5	730.0	-806.0726318359375	59.60943794250488	0.0	2050.0	2104.0	2594.0	192.0	185.5	171.5	178.0	1538503431915.0
1970-01-01 00:00:17.150	0.0	0.25	0.0	0.0	3.0	80.0	-68.5	21.5	-82.5	98494.5	528.0	0.06698621436953545	-37.292524337768555	0.0	0.0	5858.0	112.0	-99271.0	730.0	-845.63720703125	52.628122329711914	0.0	2056.0	2070.0	2578.0	196.0	184.0	174.5	171.0	1539084527129.5
1970-01-01 00:00:17.200	0.0	0.25	0.0	0.0	3.0	80.0	-69.0	19.0	-83.0	98484.0	528.0	0.06800694763660431	-36.77052688598633	0.0	0.0	5789.0	262.0	-99262.0	730.0	-880.8269653320312	55.68503189086914	0.0	2068.0	1984.0	2596.0	194.0	186.0	174.0	171.0	1539109077239.0
1970-01-01 00:00:17.250	0.0	0.25	0.0	0.0	3.0	80.0	-69.0	19.0	-83.0	98484.0	528.0	0.06800694763660431	-36.77052688598633	0.0	0.0	5789.0	262.0	-99262.0	730.0	-880.8269653320312	55.68503189086914	0.0	2068.0	1984.0	2596.0	194.0	186.0	174.0	171.0	1539109077239.0
1970-01-01 00:00:17.300	0.0	0.25	0.0	0.0	3.0	80.0	-69.0	19.0	-83.0	98484.0	528.0	0.06800694763660431	-36.77052688598633	0.0	0.0	5789.0	262.0	-99262.0	730.0	-880.8269653320312	55.68503189086914	0.0	2068.0	1984.0	2596.0	194.0	186.0	174.0	171.0	1539109077239.0
1970-01-01 00:00:17.350	0.0	0.25	0.0	0.0	3.0	80.0	-68.0	20.0	-83.0	98478.0	528.0	0.061151215806603425	-22.09075927734375	0.0	0.0	5850.0	252.0	-99345.5	730.5	-1126.5612182617188	14.608660221099854	0.0	2096.0	2046.0	2562.0	194.0	187.0	170.5	174.5	1539174710418.0
1970-01-01 00:00:17.400	0.0	0.25	0.0	0.0	3.0	80.0	-69.5	19.5	-82.5	98509.5	528.0	0.06092342361807823	-23.46891498565674	0.0	0.0	6092.0	209.5	-99365.0	731.0	-1131.156005859375	-3.2576897144317627	0.0	2058.0	2052.0	2552.0	193.5	185.0	172.5	173.5	1539210785598.0
1970-01-01 00:00:17.450	0.0	0.25	0.0	0.0	3.0	80.0	-69.0	19.0	-83.0	98478.0	528.0	0.058374520391225815	-22.76016998291016	0.0	0.0	6381.0	221.0	-99406.0	731.0	-1152.5872802734375	-39.467247009277344	0.0	2096.0	2044.0	2552.0	191.0	187.0	170.0	177.0	1539234333007.0
1970-01-01 00:00:17.500	0.0	0.25	0.0	0.0	3.0	80.0	-73.0	21.0	-81.0	98508.0	528.0	0.05802953988313675	-24.0941104888916	0.0	0.0	6549.0	189.0	-99421.0	734.0	-1106.584716796875	-40.373779296875	0.0	2120.0	1996.0	2592.0	194.0	186.0	171.0	172.0	1539264393554.0
1970-01-01 00:00:17.550	0.0	0.25	0.0	0.0	3.0	80.0	-73.0	21.0	-81.0	98508.0	528.0	0.05802953988313675	-24.0941104888916	0.0	0.0	6549.0	189.0	-99421.0	734.0	-1106.584716796875	-40.373779296875	0.0	2120.0	1996.0	2592.0	194.0	186.0	171.0	172.0	1539264393554.0
1970-01-01 00:00:17.600	0.0	0.25	0.0	0.0	3.0	80.0	-62.0	20.0	-86.0	98490.0	528.0	0.05829743668437004	-24.213685989379886	0.0	0.0	6692.0	155.0	-99421.0	736.0	-1139.2230224609375	20.515384674072266	0.0	2152.0	2040.0	2584.0	194.0	185.0	170.0	173.0	1539295458618.0
1970-01-01 00:00:17.650	0.0	0.25	0.0	0.0	3.0	80.0	-70.0	24.0	-83.0	98455.5	528.0	0.058455632999539375	-25.078044891357422	0.0	0.0	6792.0	96.0	-99449.5	737.5	-1184.6297607421875	34.11741065979004	0.0	2064.0	2050.0	2574.0	193.5	187.0	168.5	173.5	1539334036270.0
1970-01-01 00:00:17.700	0.0	0.25	0.0	0.0	3.0	80.0	-70.0	24.0	-83.0	98455.5	528.0	0.058455632999539375	-25.078044891357422	0.0	0.0	6792.0	96.0	-99449.5	737.5	-1184.6297607421875	34.11741065979004	0.0	2064.0	2050.0	2574.0	193.5	187.0	168.5	173.5	1539334036270.0
1970-01-01 00:00:17.750	0.0	0.25	0.0	0.0	3.0	80.0	-70.0	24.0	-83.0	98455.5	528.0	0.058455632999539375	-25.078044891357422	0.0	0.0	6792.0	96.0	-99449.5	737.5	-1184.6297607421875	34.11741065979004	0.0	2064.0	2050.0	2574.0	193.5	187.0	168.5	173.5	1539334036270.0
1970-01-01 00:00:17.800	0.0	0.25	0.0	0.0	3.0	80.0	-70.0	24.0	-83.0	98455.5	528.0	0.058455632999539375	-25.078044891357422	0.0	0.0	6792.0	96.0	-99449.5	737.5	-1184.6297607421875	34.11741065979004	0.0	2064.0	2050.0	2574.0	193.5	187.0	168.5	173.5	1539334036270.0
1970-01-01 00:00:17.850	0.0	0.25	0.0	0.0	3.0	80.0	-70.0	24.0	-83.0	98455.5	528.0	0.058455632999539375	-25.078044891357422	0.0	0.0	6792.0	96.0	-99449.5	737.5	-1184.6297607421875	34.11741065979004	0.0	2064.0	2050.0	2574.0	193.5	187.0	168.5	173.5	1539334036270.0
1970-01-01 00:00:17.900	0.0	0.25	0.0	0.0	3.0	80.0	-70.0	24.0	-83.0	98455.5	528.0	0.058455632999539375	-25.078044891357422	0.0	0.0	6792.0	96.0	-99449.5	737.5	-1184.6297607421875	34.11741065979004	0.0	2064.0	2050.0	2574.0	193.5	187.0	168.5	173.5	1539334036270.0
1970-01-01 00:00:17.950	0.0	0.25	0.0	0.0	3.0	80.0	-70.0	24.0	-83.0	98455.5	528.0	0.058455632999539375	-25.078044891357422	0.0	0.0	6792.0	96.0	-99449.5	737.5	-1184.6297607421875	34.11741065979004	0.0	2064.0	2050.0	2574.0	193.5	187.0	168.5	173.5	1539334036270.0
1970-01-01 00:00:18.000	0.0	0.25	0.0	0.0	3.0	80.0	-70.0	24.0	-83.0	98455.5	528.0	0.058455632999539375	-25.078044891357422	0.0	0.0	6792.0	96.0	-99449.5	737.5	-1184.6297607421875	34.11741065979004	0.0	2064.0	2050.0	2574.0	193.5	187.0	168.5	173.5	1539334036270.0
1970-01-01 00:00:18.050	0.0	0.25	0.0	0.0	3.0	80.0	-70.0	24.0	-83.0	98455.5	528.0	0.058455632999539375	-25.078044891357422	0.0	0.0	6792.0	96.0	-99449.5	737.5	-1184.6297607421875	34.11741065979004	0.0	2064.0	2050.0	2574.0	193.5	187.0	168.5	173.5	1539334036270.0
1970-01-01 00:00:18.100	0.0	0.25	0.0	0.0	3.0	80.0	-70.0	24.0	-83.0	98455.5	528.0	0.058455632999539375	-25.078044891357422	0.0	0.0	6792.0	96.0	-99449.5	737.5	-1184.6297607421875	34.11741065979004	0.0	2064.0	2050.0	2574.0	193.5	187.0	168.5	173.5	1539334036270.0
1970-01-01 00:00:18.150	0.0	0.25	0.0	0.0	3.0	80.0	-70.0	24.0	-83.0	98455.5	528.0	0.058455632999539375	-25.078044891357422	0.0	0.0	6792.0	96.0	-99449.5	737.5	-1184.6297607421875	34.11741065979004	0.0	2064.0	2050.0	2574.0	193.5	187.0	168.5	173.5	1539334036270.0
1970-01-01 00:00:18.200	0.0	0.25	0.0	0.0	3.0	80.0	-70.0	24.0	-83.0	98455.5	528.0	0.058455632999539375	-25.078044891357422	0.0	0.0	6792.0	96.0	-99449.5	737.5	-1184.6297607421875	34.11741065979004	0.0	2064.0	2050.0	2574.0	193.5	187.0	168.5	173.5	1539334036270.0
1970-01-01 00:00:18.250	0.0	0.25	0.0	0.0	3.0	80.0	-70.0	24.0	-83.0	98455.5	528.0	0.058455632999539375	-25.078044891357422	0.0	0.0	6792.0	96.0	-99449.5	737.5	-1184.6297607421875	34.11741065979004	0.0	2064.0	2050.0	2574.0	193.5	187.0	168.5	173.5	1539334036270.0
1970-01-01 00:00:18.300	0.0	0.25	0.0	0.0	3.0	80.0	-70.0	24.0	-83.0	98455.5	528.0	0.058455632999539375	-25.078044891357422	0.0	0.0	6792.0	96.0	-99449.5	737.5	-1184.6297607421875	34.11741065979004	0.0	2064.0	2050.0	2574.0	193.5	187.0	168.5	173.5	1539334036270.0
1970-01-01 00:00:18.350	0.0	0.25	0.0	0.0	3.0	80.0	-70.0	24.0	-83.0	98455.5	528.0	0.058455632999539375	-25.078044891357422	0.0	0.0	6792.0	96.0	-99449.5	737.5	-1184.6297607421875	34.11741065979004	0.0	2064.0	2050.0	2574.0	193.5	187.0	168.5	173.5	1539334036270.0
1970-01-01 00:00:18.400	0.0	0.25	0.0	0.0	3.0	80.0	-70.0	24.0	-83.0	98455.5	528.0	0.058455632999539375	-25.078044891357422	0.0	0.0	6792.0	96.0	-99449.5	737.5	-1184.6297607421875	34.11741065979004	0.0	2064.0	2050.0	2574.0	193.5	187.0	168.5	173.5	1539334036270.0
1970-01-01 00:00:18.450	0.0	0.25	0.0	0.0	3.0	80.0	-70.0	24.0	-83.0	98455.5	528.0	0.058455632999539375	-25.078044891357422	0.0	0.0	6792.0	96.0	-99449.5	737.5	-1184.6297607421875	34.11741065979004	0.0	2064.0	2050.0	2574.0	193.5	187.0	168.5	173.5	1539334036270.0
1970-01-01 00:00:18.500	0.0	0.25	0.0	0.0	3.0	80.0	-70.0	24.0	-83.0	98455.5	528.0	0.058455632999539375	-25.078044891357422	0.0	0.0	6792.0	96.0	-99449.5	737.5	-1184.6297607421875	34.11741065979004	0.0	2064.0	2050.0	2574.0	193.5	187.0	168.5	173.5	1539334036270.0
1970-01-01 00:00:18.550	0.0	0.25	0.0	0.0	3.0	80.0	-70.0	24.0	-83.0	98455.5	528.0	0.058455632999539375	-25.078044891357422	0.0	0.0	6792.0	96.0	-99449.5	737.5	-1184.6297607421875	34.11741065979004	0.0	2064.0	2050.0	2574.0	193.5	187.0	168.5	173.5	1539334036270.0
1970-01-01 00:00:18.600	0.0	0.25	0.0	0.0	3.0	80.0	-70.0	24.0	-83.0	98455.5	528.0	0.058455632999539375	-25.078044891357422	0.0	0.0	6792.0	96.0	-99449.5	737.5	-1184.6297607421875	34.11741065979004	0.0	2064.0	2050.0	2574.0	193.5	187.0	168.5	173.5	1539334036270.0
1970-01-01 00:00:18.650	0.0	0.25	0.0	0.0	3.0	80.0	-70.0	24.0	-83.0	98455.5	528.0	0.058455632999539375	-25.078044891357422	0.0	0.0	6792.0	96.0	-99449.5	737.5	-1184.6297607421875	34.11741065979004	0.0	2064.0	2050.0	2574.0	193.5	187.0	168.5	173.5	1539334036270.0
1970-01-01 00:00:18.700	0.0	0.25	0.0	0.0	3.0	80.0	-70.0	24.0	-83.0	98455.5	528.0	0.058455632999539375	-25.078044891357422	0.0	0.0	6792.0	96.0	-99449.5	737.5	-1184.6297607421875	34.11741065979004	0.0	2064.0	2050.0	2574.0	193.5	187.0	168.5	173.5	1539334036270.0
1970-01-01 00:00:18.750	0.0	0.25	0.0	0.0	3.0	80.0	-69.0	-1.0	-91.0	98481.0	528.0	0.06549635529518127	7.134699821472168	0.0	0.0	-1740.0	-1167.0	-99241.0	782.0	-441.98333740234375	35.33924102783203	0.0	2064.0	1976.0	2592.0	187.0	182.0	160.0	176.0	1540399621887.0
1970-01-01 00:00:18.800	0.0	0.25	0.0	0.0	3.0	80.0	-65.0	-5.0	-89.0	98466.0	527.0	0.06552284955978394	7.5156593322753915	0.0	0.0	-1062.0	-1155.0	-99312.0	783.0	-436.29766845703125	27.56936836242676	0.0	2104.0	2016.0	2584.0	190.0	183.0	158.0	173.0	1540416656982.0
1970-01-01 00:00:18.850	0.0	0.25	0.0	0.0	3.0	80.0	-66.0	0.0	-87.0	98479.5	527.5	0.06436342373490334	2.0961950421333313	0.0	0.0	1343.0	-815.0	-99331.5	781.5	-355.3239288330078	19.6157169342041	0.0	2034.0	1952.0	2564.0	189.5	180.0	167.0	171.0	1540455235030.5
1970-01-01 00:00:18.900	0.0	0.25	0.0	0.0	3.0	80.0	-69.0	13.0	-87.0	98476.0	527.0	0.06397029012441635	1.986851930618286	0.0	0.0	3189.0	-739.0	-99345.0	780.0	-350.0240783691406	15.200165748596193	0.0	2052.0	1964.0	2556.0	190.0	177.0	169.0	172.0	1540478782379.0
1970-01-01 00:00:18.950	0.0	0.25	0.0	0.0	3.0	80.0	-73.0	17.0	-89.0	98493.0	527.0	0.06443379074335097	1.4234081506729126	0.0	0.0	5748.0	-594.0	-99433.0	777.0	-380.1940002441406	1.6139397621154783	0.0	2016.0	2044.0	2560.0	188.0	178.0	170.0	179.0	1540509847503.0
1970-01-01 00:00:19.000	0.0	0.25	0.0	0.0	3.0	80.0	-67.0	13.0	-87.0	98490.0	528.0	0.06484723836183548	3.487562417984009	0.0	0.0	6983.0	-585.0	-99467.0	777.0	-431.01177978515625	0.23657628893852234	0.0	2012.0	2028.0	2556.0	188.0	178.0	172.0	178.0	1540526882568.0
1970-01-01 00:00:19.050	0.0	0.25	0.0	0.0	3.0	80.0	-66.5	19.5	-88.5	98487.0	527.0	0.06452572345733643	0.5073714405298233	0.0	0.0	8243.5	-591.0	-99468.0	775.5	-463.44268798828125	1.1041088700294497	0.0	2008.0	2062.0	2566.0	190.0	176.5	174.5	178.0	1540549427795.0
1970-01-01 00:00:19.100	0.0	0.25	0.0	0.0	3.0	80.0	-66.5	19.5	-88.5	98487.0	527.0	0.06452572345733643	0.5073714405298233	0.0	0.0	8243.5	-591.0	-99468.0	775.5	-463.44268798828125	1.1041088700294497	0.0	2008.0	2062.0	2566.0	190.0	176.5	174.5	178.0	1540549427795.0
1970-01-01 00:00:19.150	0.0	0.25	0.0	0.0	3.0	80.0	-67.5	26.5	-88.5	98478.0	527.0	0.06603590399026871	-0.6632306724786758	0.0	0.0	10111.0	-597.0	-99499.5	775.0	-578.0263671875	6.244981288909912	0.0	2042.0	2034.0	2568.0	189.0	179.5	172.5	180.0	1541132025497.0
1970-01-01 00:00:19.200	0.0	0.25	0.0	0.0	3.0	80.0	-69.0	25.0	-85.0	98487.0	527.0	0.06633191555738449	-1.2848879098892212	0.0	0.0	10510.0	-504.0	-99458.0	773.0	-628.25146484375	-0.8964645862579346	0.0	2044.0	2028.0	2584.0	192.0	180.0	174.0	178.0	1541155073242.0
1970-01-01 00:00:19.250	0.0	0.25	0.0	0.0	3.0	80.0	-69.0	25.0	-85.0	98487.0	527.0	0.06633191555738449	-1.2848879098892212	0.0	0.0	10510.0	-504.0	-99458.0	773.0	-628.25146484375	-0.8964645862579346	0.0	2044.0	2028.0	2584.0	192.0	180.0	174.0	178.0	1541155073242.0
1970-01-01 00:00:19.300	0.0	0.25	0.0	0.0	3.0	80.0	-69.5	24.5	-88.5	98484.0	527.0	0.06912019476294518	-0.14092211425304413	0.0	0.0	10007.0	-574.5	-99538.5	768.5	-788.6549072265625	8.958049774169922	0.0	2062.0	2048.0	2584.0	202.5	181.5	171.0	170.0	1541209683608.5
1970-01-01 00:00:19.350	0.0	0.25	0.0	0.0	3.0	80.0	-67.0	27.0	-83.0	98454.0	527.0	0.07186444103717804	-0.38691604137420654	0.0	0.0	9403.0	-643.0	-99399.0	768.0	-851.3623046875	18.97393798828125	0.0	2116.0	1984.0	2580.0	206.0	181.0	170.0	166.0	1541231228881.0
1970-01-01 00:00:19.400	0.0	0.25	0.0	0.0	3.0	80.0	-63.0	29.0	-85.0	98454.0	527.0	0.0735502615571022	3.1180758476257324	0.0	0.0	8748.0	-1074.0	-99312.0	764.0	-954.8412475585938	22.72283935546875	0.0	2104.0	2104.0	2576.0	208.0	180.0	165.0	172.0	1541263293853.0
1970-01-01 00:00:19.450	0.0	0.25	0.0	0.0	3.0	80.0	-67.0	31.0	-87.0	98496.0	527.0	0.07357461005449295	3.1756775379180913	0.0	0.0	8727.0	-1118.0	-99317.0	763.0	-960.9869384765624	21.581830978393555	0.0	2080.0	2072.0	2572.0	206.0	182.0	165.0	173.0	1541265298797.0
1970-01-01 00:00:19.500	0.0	0.25	0.0	0.0	3.0	80.0	-67.0	31.0	-87.0	98496.0	527.0	0.07357461005449295	3.1756775379180913	0.0	0.0	8727.0	-1118.0	-99317.0	763.0	-960.9869384765624	21.581830978393555	0.0	2080.0	2072.0	2572.0	206.0	182.0	165.0	173.0	1541265298797.0
1970-01-01 00:00:19.550	0.0	0.25	0.0	0.0	3.0	80.0	-67.0	23.0	-85.0	98476.0	527.0	0.07051981985569	1.1519690752029421	0.0	0.0	9115.0	-1738.0	-99264.0	757.0	-1031.812744140625	-39.98532485961914	0.0	2144.0	2116.0	2588.0	199.0	181.0	168.0	180.0	1541327424224.0
1970-01-01 00:00:19.600	0.0	0.25	0.0	0.0	3.0	80.0	-65.0	31.0	-83.0	98476.0	527.0	0.06844547390937805	1.956372857093811	0.0	0.0	9768.0	-1312.0	-99202.0	756.0	-1029.4129638671877	-49.15216445922852	0.0	2028.0	2084.0	2592.0	194.0	184.0	172.0	178.0	1541356484375.0
1970-01-01 00:00:19.650	0.0	0.25	0.0	0.0	3.0	80.0	-70.0	32.0	-84.0	98473.5	527.0	0.06888223811984062	1.2290058732032776	0.0	0.0	10309.5	-816.5	-99286.5	759.0	-1091.852783203125	-91.33465576171875	0.0	2156.0	2038.0	2602.0	190.5	184.0	170.0	178.5	1541382037139.5
1970-01-01 00:00:19.700	0.0	0.25	0.0	0.0	3.0	80.0	-78.0	34.0	-80.0	98487.0	527.0	0.06937900185585022	0.7935859560966492	0.0	0.0	10703.0	-346.0	-99327.0	760.0	-1112.382568359375	-90.07181549072266	0.0	2152.0	2016.0	2588.0	188.0	185.0	172.0	178.0	1541405584655.0
1970-01-01 00:00:19.750	0.0	0.25	0.0	0.0	3.0	80.0	-74.0	32.0	-86.0	98484.0	527.0	0.07038737833499907	0.6065082550048828	0.0	0.0	10946.0	30.0	-99220.0	763.0	-1130.988525390625	-75.62208557128906	0.0	2112.0	2072.0	2576.0	196.0	176.0	179.0	169.0	1541422619903.0
1970-01-01 00:00:19.800	0.0	0.25	0.0	0.0	3.0	80.0	-68.0	38.0	-82.0	98481.0	527.0	0.07654578983783722	-12.321589469909668	0.0	0.0	10871.0	247.0	-99238.0	770.0	-1149.7745361328125	-9.16460132598877	0.0	2108.0	2052.0	2576.0	193.0	180.0	170.0	171.0	1541454684997.0
1970-01-01 00:00:19.850	0.0	0.25	0.0	0.0	3.0	80.0	-66.5	30.5	-82.5	98487.5	527.0	0.07612836360931396	-14.140023231506348	0.0	0.0	10698.0	326.0	-99185.0	774.5	-1152.135498046875	-5.422442197799682	0.0	2034.0	2018.0	2578.0	195.5	178.0	171.5	166.0	1541476730178.5
1970-01-01 00:00:19.900	0.0	0.25	0.0	0.0	3.0	80.0	-66.5	30.5	-82.5	98487.5	527.0	0.07612836360931396	-14.140023231506348	0.0	0.0	10698.0	326.0	-99185.0	774.5	-1152.135498046875	-5.422442197799682	0.0	2034.0	2018.0	2578.0	195.5	178.0	171.5	166.0	1541476730178.5
1970-01-01 00:00:19.950	0.0	0.25	0.0	0.0	3.0	80.0	-66.5	30.5	-82.5	98487.5	527.0	0.07612836360931396	-14.140023231506348	0.0	0.0	10698.0	326.0	-99185.0	774.5	-1152.135498046875	-5.422442197799682	0.0	2034.0	2018.0	2578.0	195.5	178.0	171.5	166.0	1541476730178.5
1970-01-01 00:00:20.000	0.0	0.25	0.0	0.0	3.0	80.0	-66.5	30.5	-82.5	98487.5	527.0	0.07612836360931396	-14.140023231506348	0.0	0.0	10698.0	326.0	-99185.0	774.5	-1152.135498046875	-5.422442197799682	0.0	2034.0	2018.0	2578.0	195.5	178.0	171.5	166.0	1541476730178.5
1970-01-01 00:00:20.050	0.0	0.25	0.0	0.0	3.0	80.0	-66.5	30.5	-82.5	98487.5	527.0	0.07612836360931396	-14.140023231506348	0.0	0.0	10698.0	326.0	-99185.0	774.5	-1152.135498046875	-5.422442197799682	0.0	2034.0	2018.0	2578.0	195.5	178.0	171.5	166.0	1541476730178.5
1970-01-01 00:00:20.100	0.0	0.25	0.0	0.0	3.0	80.0	-66.5	30.5	-82.5	98487.5	527.0	0.07612836360931396	-14.140023231506348	0.0	0.0	10698.0	326.0	-99185.0	774.5	-1152.135498046875	-5.422442197799682	0.0	2034.0	2018.0	2578.0	195.5	178.0	171.5	166.0	1541476730178.5
1970-01-01 00:00:20.150	0.0	0.25	0.0	0.0	3.0	80.0	-66.5	30.5	-82.5	98487.5	527.0	0.07612836360931396	-14.140023231506348	0.0	0.0	10698.0	326.0	-99185.0	774.5	-1152.135498046875	-5.422442197799682	0.0	2034.0	2018.0	2578.0	195.5	178.0	171.5	166.0	1541476730178.5
1970-01-01 00:00:20.200	0.0	0.25	0.0	0.0	3.0	80.0	-66.5	30.5	-82.5	98487.5	527.0	0.07612836360931396	-14.140023231506348	0.0	0.0	10698.0	326.0	-99185.0	774.5	-1152.135498046875	-5.422442197799682	0.0	2034.0	2018.0	2578.0	195.5	178.0	171.5	166.0	1541476730178.5
1970-01-01 00:00:20.250	0.0	0.25	0.0	0.0	3.0	80.0	-66.5	30.5	-82.5	98487.5	527.0	0.07612836360931396	-14.140023231506348	0.0	0.0	10698.0	326.0	-99185.0	774.5	-1152.135498046875	-5.422442197799682	0.0	2034.0	2018.0	2578.0	195.5	178.0	171.5	166.0	1541476730178.5
1970-01-01 00:00:20.300	0.0	0.25	0.0	0.0	3.0	80.0	-66.5	30.5	-82.5	98487.5	527.0	0.07612836360931396	-14.140023231506348	0.0	0.0	10698.0	326.0	-99185.0	774.5	-1152.135498046875	-5.422442197799682	0.0	2034.0	2018.0	2578.0	195.5	178.0	171.5	166.0	1541476730178.5
1970-01-01 00:00:20.350	0.0	0.25	0.0	0.0	3.0	80.0	-66.5	30.5	-82.5	98487.5	527.0	0.07612836360931396	-14.140023231506348	0.0	0.0	10698.0	326.0	-99185.0	774.5	-1152.135498046875	-5.422442197799682	0.0	2034.0	2018.0	2578.0	195.5	178.0	171.5	166.0	1541476730178.5
1970-01-01 00:00:20.400	0.0	0.25	0.0	0.0	3.0	80.0	-66.5	30.5	-82.5	98487.5	527.0	0.07612836360931396	-14.140023231506348	0.0	0.0	10698.0	326.0	-99185.0	774.5	-1152.135498046875	-5.422442197799682	0.0	2034.0	2018.0	2578.0	195.5	178.0	171.5	166.0	1541476730178.5
1970-01-01 00:00:20.450	0.0	0.25	0.0	0.0	3.0	80.0	-66.5	30.5	-82.5	98487.5	527.0	0.07612836360931396	-14.140023231506348	0.0	0.0	10698.0	326.0	-99185.0	774.5	-1152.135498046875	-5.422442197799682	0.0	2034.0	2018.0	2578.0	195.5	178.0	171.5	166.0	1541476730178.5
1970-01-01 00:00:20.500	0.0	0.25	0.0	0.0	3.0	80.0	-66.5	30.5	-82.5	98487.5	527.0	0.07612836360931396	-14.140023231506348	0.0	0.0	10698.0	326.0	-99185.0	774.5	-1152.135498046875	-5.422442197799682	0.0	2034.0	2018.0	2578.0	195.5	178.0	171.5	166.0	1541476730178.5
1970-01-01 00:00:20.550	0.0	0.25	0.0	0.0	3.0	80.0	-66.5	30.5	-82.5	98487.5	527.0	0.07612836360931396	-14.140023231506348	0.0	0.0	10698.0	326.0	-99185.0	774.5	-1152.135498046875	-5.422442197799682	0.0	2034.0	2018.0	2578.0	195.5	178.0	171.5	166.0	1541476730178.5
1970-01-01 00:00:20.600	0.0	0.25	0.0	0.0	3.0	80.0	-66.5	30.5	-82.5	98487.5	527.0	0.07612836360931396	-14.140023231506348	0.0	0.0	10698.0	326.0	-99185.0	774.5	-1152.135498046875	-5.422442197799682	0.0	2034.0	2018.0	2578.0	195.5	178.0	171.5	166.0	1541476730178.5
1970-01-01 00:00:20.650	0.0	0.25	0.0	0.0	3.0	80.0	-66.5	30.5	-82.5	98487.5	527.0	0.07612836360931396	-14.140023231506348	0.0	0.0	10698.0	326.0	-99185.0	774.5	-1152.135498046875	-5.422442197799682	0.0	2034.0	2018.0	2578.0	195.5	178.0	171.5	166.0	1541476730178.5
1970-01-01 00:00:20.700	0.0	0.25	0.0	0.0	3.0	80.0	-66.5	30.5	-82.5	98487.5	527.0	0.07612836360931396	-14.140023231506348	0.0	0.0	10698.0	326.0	-99185.0	774.5	-1152.135498046875	-5.422442197799682	0.0	2034.0	2018.0	2578.0	195.5	178.0	171.5	166.0	1541476730178.5
1970-01-01 00:00:20.750	0.0	0.25	0.0	0.0	3.0	80.0	-66.5	30.5	-82.5	98487.5	527.0	0.07612836360931396	-14.140023231506348	0.0	0.0	10698.0	326.0	-99185.0	774.5	-1152.135498046875	-5.422442197799682	0.0	2034.0	2018.0	2578.0	195.5	178.0	171.5	166.0	1541476730178.5
1970-01-01 00:00:20.800	0.0	0.25	0.0	0.0	3.0	80.0	-66.5	30.5	-82.5	98487.5	527.0	0.07612836360931396	-14.140023231506348	0.0	0.0	10698.0	326.0	-99185.0	774.5	-1152.135498046875	-5.422442197799682	0.0	2034.0	2018.0	2578.0	195.5	178.0	171.5	166.0	1541476730178.5
1970-01-01 00:00:20.850	0.0	0.25	0.0	0.0	3.0	80.0	-66.5	30.5	-82.5	98487.5	527.0	0.07612836360931396	-14.140023231506348	0.0	0.0	10698.0	326.0	-99185.0	774.5	-1152.135498046875	-5.422442197799682	0.0	2034.0	2018.0	2578.0	195.5	178.0	171.5	166.0	1541476730178.5
1970-01-01 00:00:20.900	0.0	0.25	0.0	0.0	3.0	80.0	-66.5	30.5	-82.5	98487.5	527.0	0.07612836360931396	-14.140023231506348	0.0	0.0	10698.0	326.0	-99185.0	774.5	-1152.135498046875	-5.422442197799682	0.0	2034.0	2018.0	2578.0	195.5	178.0	171.5	166.0	1541476730178.5
1970-01-01 00:00:20.950	0.0	0.25	0.0	0.0	3.0	80.0	-66.5	30.5	-82.5	98487.5	527.0	0.07612836360931396	-14.140023231506348	0.0	0.0	10698.0	326.0	-99185.0	774.5	-1152.135498046875	-5.422442197799682	0.0	2034.0	2018.0	2578.0	195.5	178.0	171.5	166.0	1541476730178.5
1970-01-01 00:00:21.000	0.0	0.25	0.0	0.0	3.0	80.0	-66.5	30.5	-82.5	98487.5	527.0	0.07612836360931396	-14.140023231506348	0.0	0.0	10698.0	326.0	-99185.0	774.5	-1152.135498046875	-5.422442197799682	0.0	2034.0	2018.0	2578.0	195.5	178.0	171.5	166.0	1541476730178.5
1970-01-01 00:00:21.050	0.0	-0.25	0.0	0.0	3.0	79.0	-84.0	0.0	-100.0	98481.0	527.0	0.10461828857660294	-30.47531700134277	0.0	0.0	-368.0	-31.0	-99569.0	767.0	-150.2279052734375	106.996337890625	0.0	2084.0	2028.0	2552.0	178.0	178.0	173.0	180.0	1542599933532.0
1970-01-01 00:00:21.100	0.0	-0.25	0.0	0.0	3.0	79.0	-84.0	0.0	-100.0	98481.0	527.0	0.10461828857660294	-30.47531700134277	0.0	0.0	-368.0	-31.0	-99569.0	767.0	-150.2279052734375	106.996337890625	0.0	2084.0	2028.0	2552.0	178.0	178.0	173.0	180.0	1542599933532.0
1970-01-01 00:00:21.150	0.0	-0.25	0.0	0.0	3.0	79.0	-70.0	-8.0	-98.0	98478.0	527.0	0.10618528723716736	-33.769115447998054	0.0	0.0	-2803.0	180.0	-99688.0	760.0	-75.84840393066406	96.15787506103516	0.0	2124.0	2028.0	2548.0	180.0	182.0	174.0	180.0	1543182028839.0
1970-01-01 00:00:21.200	0.0	-0.25	0.0	0.0	3.0	79.0	-74.0	-5.0	-96.0	98482.5	527.0	0.1078025959432125	-34.671796798706055	0.0	0.0	-3789.5	315.0	-99749.0	756.0	1.3009972572326651	102.31811141967773	0.0	2144.0	2084.0	2576.0	180.5	184.0	174.0	180.5	1543203574050.0
1970-01-01 00:00:21.250	0.0	-0.25	0.0	0.0	3.0	79.0	-74.5	-10.5	-98.5	98474.5	527.0	0.11049074679613113	-36.107553482055664	0.0	0.0	-4808.0	393.0	-99805.5	752.5	45.99851417541504	112.81918716430664	0.0	2054.0	2086.0	2590.0	183.0	180.5	177.0	180.0	1543233134292.0
1970-01-01 00:00:21.300	0.0	-0.25	0.0	0.0	3.0	79.0	-74.0	-12.0	-98.0	98484.0	527.0	0.11148709058761597	-38.09987258911133	0.0	0.0	-5376.0	326.0	-99894.0	750.0	109.49907684326172	106.63115692138672	0.0	2100.0	2068.0	2580.0	179.0	183.0	173.0	186.0	1543258184417.0
1970-01-01 00:00:21.350	0.0	-0.25	0.0	0.0	3.0	79.0	-78.0	-14.0	-96.0	98505.0	527.0	0.1119239628314972	-37.8575439453125	0.0	0.0	-5610.0	280.0	-99940.0	749.0	129.82168579101562	109.2707748413086	0.0	2068.0	2076.0	2588.0	181.0	180.0	176.0	184.0	1543272214477.0
1970-01-01 00:00:21.400	0.0	-0.25	0.0	0.0	3.0	79.0	-70.0	-14.0	-100.0	98473.0	527.0	0.11447309702634813	-39.90913391113281	0.0	0.0	-6107.0	144.0	-100012.0	749.0	222.42481994628903	112.96763610839844	0.0	2016.0	2072.0	2564.0	180.0	179.0	175.0	184.0	1543302274902.0
1970-01-01 00:00:21.450	0.0	-0.25	0.0	0.0	3.0	79.0	-76.5	-15.5	-99.5	98478.0	527.0	0.11677803844213486	-41.20563507080078	0.0	0.0	-6368.0	-58.0	-99955.5	747.5	295.1027069091797	115.26386260986328	0.0	2084.0	2042.0	2568.0	180.0	178.0	174.5	186.5	1543327827331.0
1970-01-01 00:00:21.500	0.0	-0.25	0.0	0.0	3.0	79.0	-68.0	-14.0	-100.0	98478.0	527.0	0.11798109114170074	-42.2696533203125	0.0	0.0	-6506.0	-279.0	-99974.0	747.0	359.766357421875	108.74030303955078	0.0	2092.0	2044.0	2556.0	180.0	177.0	174.0	188.0	1543351374938.0
1970-01-01 00:00:21.550	0.0	-0.25	0.0	0.0	3.0	79.0	-72.0	-18.0	-96.0	98481.0	527.0	0.12025399506092073	-43.63206100463867	0.0	0.0	-6536.0	-419.0	-99973.0	746.0	397.3416748046875	109.36869049072266	0.0	2060.0	2016.0	2584.0	182.0	175.0	176.0	187.0	1543360395233.0
1970-01-01 00:00:21.600	0.0	-0.25	0.0	0.0	3.0	79.0	-72.0	-18.0	-96.0	98481.0	527.0	0.12025399506092073	-43.63206100463867	0.0	0.0	-6536.0	-419.0	-99973.0	746.0	397.3416748046875	109.36869049072266	0.0	2060.0	2016.0	2584.0	182.0	175.0	176.0	187.0	1543360395233.0
1970-01-01 00:00:21.650	0.0	-0.25	0.0	0.0	3.0	79.0	-72.5	-18.5	-101.5	98478.5	527.0	0.1261696293950081	-49.17184257507324	0.0	0.0	-6483.5	-926.0	-99982.0	743.0	634.8243103027344	93.2476921081543	0.0	2058.0	2094.0	2564.0	179.0	174.0	177.0	191.0	1543427030578.0
1970-01-01 00:00:21.700	0.0	-0.25	0.0	0.0	3.0	79.0	-72.0	-20.0	-100.0	98493.0	527.0	0.12879613041877747	-51.025367736816406	0.0	0.0	-6412.0	-892.0	-99977.0	742.0	720.5055541992188	75.83525848388672	0.0	2056.0	2080.0	2592.0	181.0	171.0	182.0	187.0	1543449575622.0
1970-01-01 00:00:21.750	0.0	-0.25	0.0	0.0	3.0	79.0	-72.0	-20.0	-100.0	98493.0	527.0	0.12879613041877747	-51.025367736816406	0.0	0.0	-6412.0	-892.0	-99977.0	742.0	720.5055541992188	75.83525848388672	0.0	2056.0	2080.0	2592.0	181.0	171.0	182.0	187.0	1543449575622.0
1970-01-01 00:00:21.800	0.0	-0.25	0.0	0.0	3.0	79.0	-67.0	-13.0	-97.0	98478.0	527.0	0.13293565809726715	-53.85011672973633	0.0	0.0	-6156.0	-558.0	-100027.0	741.0	847.1085815429688	61.31959533691406	0.0	1972.0	2052.0	2564.0	174.0	174.0	180.0	192.0	1543498676239.0
1970-01-01 00:00:21.850	0.0	-0.25	0.0	0.0	3.0	79.0	-74.0	-14.0	-98.0	98490.0	527.0	0.13310110569000244	-54.12840270996094	0.0	0.0	-6078.0	-487.0	-100004.0	740.0	868.193603515625	51.23771667480469	0.0	1988.0	2060.0	2564.0	175.0	171.0	183.0	191.0	1543512706024.0
1970-01-01 00:00:21.900	0.0	-0.25	0.0	0.0	3.0	79.0	-74.0	-14.0	-98.0	98502.0	527.0	0.13931740820407867	-57.17721939086914	0.0	0.0	-5666.0	-15.0	-99979.0	735.0	989.0897827148438	39.28756713867188	0.0	2008.0	2028.0	2568.0	174.0	173.0	186.0	192.0	1543559801330.0
1970-01-01 00:00:21.950	0.0	-0.25	0.0	0.0	3.0	79.0	-75.0	-19.0	-95.0	98484.0	527.0	0.13998252153396604	-57.64967346191406	0.0	0.0	-5620.0	63.0	-99982.0	734.0	1007.1692504882812	39.41923522949219	0.0	2068.0	2024.0	2560.0	174.0	172.0	186.0	192.0	1543573831298.0
1970-01-01 00:00:22.000	0.0	-0.25	0.0	0.0	3.0	79.0	-72.0	-20.0	-100.0	98493.0	527.0	0.14201997220516205	-58.4532356262207	0.0	0.0	-5606.0	170.0	-99952.0	729.0	1039.565185546875	44.76042175292969	0.0	2076.0	2016.0	2568.0	173.0	173.0	186.0	196.0	1543605896453.0
1970-01-01 00:00:22.050	0.0	-0.25	0.0	0.0	3.0	79.0	-74.0	-16.0	-98.0	98499.0	527.0	0.14351119101047516	-59.3734130859375	0.0	0.0	-5564.0	207.0	-99946.0	726.0	1066.193115234375	42.91435241699219	0.0	2076.0	2032.0	2564.0	173.0	173.0	189.0	195.0	1543620926696.0
1970-01-01 00:00:22.100	0.0	-0.25	0.0	0.0	3.0	79.0	-79.0	-13.0	-87.0	98496.0	527.0	0.1438041776418686	-59.28408432006836	0.0	0.0	-5536.0	267.0	-99858.0	722.0	1072.1650390625	47.97614288330078	0.0	1956.0	2048.0	2580.0	182.0	166.0	195.0	189.0	1543649987121.0
1970-01-01 00:00:22.150	0.0	-0.25	0.0	0.0	3.0	79.0	-74.0	-15.0	-92.0	98493.0	527.0	0.14722247421741486	-60.76803779602051	0.0	0.0	-5521.5	224.5	-99822.0	718.0	1127.8226318359375	50.26069450378418	0.0	2010.0	2060.0	2570.0	177.0	169.5	192.5	194.5	1544209537093.5
1970-01-01 00:00:22.200	0.0	-0.25	0.0	0.0	3.0	79.0	-74.0	-18.0	-94.0	98484.0	527.0	0.14884473383426666	-61.31858444213867	0.0	0.0	-5493.0	197.0	-99801.0	714.0	1216.200439453125	49.30806350708008	0.0	1960.0	2064.0	2584.0	175.0	170.0	192.0	197.0	1544232082061.0
1970-01-01 00:00:22.250	0.0	-0.25	0.0	0.0	3.0	79.0	-74.0	-18.0	-94.0	98484.0	527.0	0.14884473383426666	-61.31858444213867	0.0	0.0	-5493.0	197.0	-99801.0	714.0	1216.200439453125	49.30806350708008	0.0	1960.0	2064.0	2584.0	175.0	170.0	192.0	197.0	1544232082061.0
1970-01-01 00:00:22.300	0.0	-0.25	0.0	0.0	3.0	79.0	-74.0	-14.0	-96.0	98493.0	527.0	0.15620195865631106	-62.59208679199219	0.0	0.0	-5492.0	140.0	-99780.0	712.0	1320.1546630859375	59.42349624633789	0.0	1956.0	2040.0	2596.0	174.0	170.0	191.0	197.0	1544281182708.0
1970-01-01 00:00:22.350	0.0	-0.25	0.0	0.0	3.0	79.0	-73.0	-15.0	-95.0	98470.0	527.0	0.155717670917511	-63.90351104736328	0.0	0.0	-5622.0	71.0	-99763.0	711.0	1304.864501953125	34.82511138916016	0.0	1952.0	2052.0	2580.0	175.0	169.0	190.0	197.0	1544313247985.0
1970-01-01 00:00:22.400	0.0	-0.25	0.0	0.0	3.0	79.0	-73.0	-15.0	-95.0	98470.0	527.0	0.155717670917511	-63.90351104736328	0.0	0.0	-5622.0	71.0	-99763.0	711.0	1304.864501953125	34.82511138916016	0.0	1952.0	2052.0	2580.0	175.0	169.0	190.0	197.0	1544313247985.0
1970-01-01 00:00:22.450	0.0	-0.25	0.0	0.0	3.0	79.0	-71.0	-17.0	-91.0	98464.0	527.0	0.15581732988357544	-64.37825775146484	0.0	0.0	-5875.0	100.0	-99780.0	712.0	1474.89208984375	24.06035041809082	0.0	1948.0	2028.0	2592.0	172.0	171.0	188.0	197.0	1544344312744.0
1970-01-01 00:00:22.500	0.0	-0.25	0.0	0.0	3.0	79.0	-71.0	-17.0	-91.0	98464.0	527.0	0.15581732988357544	-64.37825775146484	0.0	0.0	-5875.0	100.0	-99780.0	712.0	1474.89208984375	24.06035041809082	0.0	1948.0	2028.0	2592.0	172.0	171.0	188.0	197.0	1544344312744.0
1970-01-01 00:00:22.550	0.0	-0.25	0.0	0.0	3.0	79.0	-71.0	-17.0	-91.0	98464.0	527.0	0.15581732988357544	-64.37825775146484	0.0	0.0	-5875.0	100.0	-99780.0	712.0	1474.89208984375	24.06035041809082	0.0	1948.0	2028.0	2592.0	172.0	171.0	188.0	197.0	1544344312744.0
1970-01-01 00:00:22.600	0.0	-0.25	0.0	0.0	3.0	79.0	-71.0	-17.0	-91.0	98464.0	527.0	0.15581732988357544	-64.37825775146484	0.0	0.0	-5875.0	100.0	-99780.0	712.0	1474.89208984375	24.06035041809082	0.0	1948.0	2028.0	2592.0	172.0	171.0	188.0	197.0	1544344312744.0
1970-01-01 00:00:22.650	0.0	-0.25	0.0	0.0	3.0	79.0	-71.0	-17.0	-91.0	98464.0	527.0	0.15581732988357544	-64.37825775146484	0.0	0.0	-5875.0	100.0	-99780.0	712.0	1474.89208984375	24.06035041809082	0.0	1948.0	2028.0	2592.0	172.0	171.0	188.0	197.0	1544344312744.0
1970-01-01 00:00:22.700	0.0	-0.25	0.0	0.0	3.0	79.0	-71.0	-17.0	-91.0	98464.0	527.0	0.15581732988357544	-64.37825775146484	0.0	0.0	-5875.0	100.0	-99780.0	712.0	1474.89208984375	24.06035041809082	0.0	1948.0	2028.0	2592.0	172.0	171.0	188.0	197.0	1544344312744.0
1970-01-01 00:00:22.750	0.0	-0.25	0.0	0.0	3.0	79.0	-71.0	-17.0	-91.0	98464.0	527.0	0.15581732988357544	-64.37825775146484	0.0	0.0	-5875.0	100.0	-99780.0	712.0	1474.89208984375	24.06035041809082	0.0	1948.0	2028.0	2592.0	172.0	171.0	188.0	197.0	1544344312744.0
1970-01-01 00:00:22.800	0.0	-0.25	0.0	0.0	3.0	79.0	-71.0	-17.0	-91.0	98464.0	527.0	0.15581732988357544	-64.37825775146484	0.0	0.0	-5875.0	100.0	-99780.0	712.0	1474.89208984375	24.06035041809082	0.0	1948.0	2028.0	2592.0	172.0	171.0	188.0	197.0	1544344312744.0
1970-01-01 00:00:22.850	0.0	-0.25	0.0	0.0	3.0	79.0	-71.0	-17.0	-91.0	98464.0	527.0	0.15581732988357544	-64.37825775146484	0.0	0.0	-5875.0	100.0	-99780.0	712.0	1474.89208984375	24.06035041809082	0.0	1948.0	2028.0	2592.0	172.0	171.0	188.0	197.0	1544344312744.0
