time	leftRight	frontBack	up	angular	State	Battery_level	Magnetometer_x	Magnetometer_y	Magnetometer_z	Pressure	Temperature	Wind_speed	Wind_angle	Wind_compensation:pitch	Wind_compensation:roll	Pitch_y	Roll_x	Yaw_z	Altitude	Velocity_x	Velocity_y	Velocity_z	Acceleration_x	Acceleration_y	Acceleration_z	Motor_1_power	Motor_2_power	Motor_3_power	Motor_4_power	time_board
2017-08-10 12:48:16.050	0.0	-0.25	0.0	0.0	7.0	35.0	36.4	-17.8	-92.0	98912.4	499.0	0.0	0.0	0.0	0.0	-7.0	1.9	-2354.4	0.0	0.027802335657179357	0.030323789827525614	0.0	2052.0	2048.0	2572.0	70.0	70.0	70.0	70.0	167289284.8
2017-08-10 12:48:16.100	0.0	-0.25	0.0	0.0	7.0	35.0	33.0	-20.4	-91.4	98913.6	499.0	0.0	0.0	0.0	0.0	-7.1	1.8	-2356.5	0.0	0.032992468774318696	0.03994339518249035	0.0	2052.0	2048.0	2572.0	70.0	70.0	70.0	70.0	167339400.8
2017-08-10 12:48:16.150	0.0	-0.25	0.0	0.0	7.0	35.0	34.9	-17.3	-90.5	98908.8	499.0	0.0	0.0	0.0	0.0	-8.6	1.0	-2359.4	0.0	0.04370897486805916	0.03708623461425305	0.0	2052.0	2048.0	2571.6	70.0	70.0	70.0	70.0	167389483.1
2017-08-10 12:48:16.200	0.0	-0.25	0.0	0.0	7.0	35.0	36.2	-16.6	-90.4	98907.6	499.0	0.0	0.0	0.0	0.0	-10.1	0.2	-2360.5	0.0	0.05470136143267155	0.030735734291374682	0.0	2052.0	2048.0	2572.0	70.0	70.0	70.0	70.0	167439666.3
2017-08-10 12:48:16.250	0.0	-0.25	0.0	0.0	7.0	35.0	40.0	-18.8	-88.4	98910.0	499.0	0.0	0.0	0.0	0.0	-10.5	-0.7	-2362.0	0.0	0.07470260486006737	0.02145257079973817	0.0	2052.4	2048.4	2571.6	70.0	70.0	70.0	70.0	167489800.5
2017-08-10 12:48:16.300	0.0	-0.25	0.0	0.0	7.0	35.0	46.9	-17.1	-91.3	98910.6	499.0	0.0	0.0	0.0	0.0	-3.1	-0.2	-2360.3	0.0	0.44914825111627577	-0.13734734021127223	0.0	2055.6	2048.4	2572.4	70.0	70.0	70.0	70.0	167539947.0
2017-08-10 12:48:16.350	0.0	-0.25	0.0	0.0	7.0	35.0	36.5	-16.1	-91.1	98907.0	499.0	0.0	0.0	0.0	0.0	-3.8	-4.8	-2367.5	0.0	1.708144974708557	-0.022482381202280518	0.0	2057.2	2047.6	2572.0	70.0	70.0	70.0	70.0	167590035.4
2017-08-10 12:48:16.400	0.0	-0.25	0.0	0.0	7.0	35.0	35.2	-12.8	-93.2	98910.6	499.0	0.0	0.0	0.0	0.0	-7.3	-5.1	-2411.2	0.0	1.8052778959274292	-0.32098332680761815	0.0	2055.2	2051.6	2570.4	70.0	70.0	70.0	70.0	167640182.1
2017-08-10 12:48:16.450	0.0	-0.25	0.0	0.0	7.0	35.0	39.22222222222222	-16.77777777777778	-90.55555555555556	98910.66666666667	499.0	0.0	0.0	0.0	0.0	-5.222222222222222	7.888888888888889	-2452.0	0.0	1.539747675259908	-0.40876314747664666	0.0	2057.3333333333335	2047.111111111111	2569.777777777778	70.0	70.0	70.0	70.0	167687797.7777778
2017-08-10 12:48:16.500	0.0	-0.25	0.0	0.0	7.0	35.0	38.27272727272727	-13.909090909090908	-90.63636363636364	98914.90909090909	499.0	0.0	0.0	0.0	0.0	5.090909090909091	15.363636363636363	-2458.7272727272725	0.0	1.5470458485863425	-0.15018889451907438	0.0	2056.0	2048.7272727272725	2571.2727272727275	70.0	70.0	70.0	70.0	167737942.1818182
2017-08-10 12:48:16.550	0.0	-0.25	0.0	0.0	7.0	35.0	36.77777777777778	-14.11111111111111	-94.55555555555556	98913.33333333333	499.0	0.0	0.0	0.0	0.0	12.444444444444445	17.555555555555557	-2457.1111111111113	0.0	1.53833978705936	-0.1292243623174727	0.0	2056.4444444444443	2049.777777777778	2572.4444444444443	70.0	70.0	70.0	70.0	167788139.7777778
2017-08-10 12:48:16.600	0.0	-0.25	0.0	0.0	7.0	35.0	38.63636363636363	-15.0	-84.45454545454545	98912.18181818182	499.0	0.0	0.0	0.0	0.0	19.09090909090909	17.363636363636363	-2461.5454545454545	0.0	1.3689552003687078	-0.06361322485926477	0.0	2057.090909090909	2048.3636363636365	2572.7272727272725	71.0909090909091	71.0909090909091	71.0909090909091	71.0909090909091	167838214.72727272
2017-08-10 12:48:16.650	0.0	-0.25	0.0	0.0	7.0	35.0	34.55555555555556	-3.4444444444444446	-100.77777777777777	98914.0	499.0	0.0	0.0	0.0	0.0	26.555555555555557	21.333333333333332	-2461.222222222222	0.0	1.2026437918345134	0.02965954825696018	0.0	2056.0	2048.8888888888887	2572.4444444444443	72.0	72.0	72.0	72.0	167888345.8888889
2017-08-10 12:48:16.700	0.0	-0.25	0.0	0.0	7.0	35.0	36.2	-13.0	-85.0	98914.8	499.0	0.0	0.0	0.0	0.0	32.1	26.1	-2454.7	0.0	1.1899248838424683	0.05804363461211324	0.0	2056.8	2048.8	2572.0	72.0	72.0	72.0	72.0	167935943.2
2017-08-10 12:48:16.750	0.0	-0.25	0.0	0.0	7.0	35.0	38.2	-13.8	-88.6	98913.9	499.0	0.0	0.0	0.0	0.0	39.6	28.7	-2455.8	0.0	0.9527477860450745	0.3040248077362776	0.0	2055.6	2047.6	2570.4	72.0	72.0	72.0	72.0	167986123.1
2017-08-10 12:48:16.800	0.0	-0.25	0.0	0.0	7.0	35.0	38.54545454545455	-14.727272727272727	-90.54545454545455	98909.18181818182	499.0	0.0	0.0	0.0	0.0	41.18181818181818	30.181818181818183	-2462.3636363636365	0.0	0.7670262943614613	0.509935427795757	0.0	2056.7272727272725	2046.909090909091	2572.0	72.0	72.0	72.0	72.0	168038707.0909091
2017-08-10 12:48:16.850	0.0	-0.25	0.0	0.0	7.0	35.0	42.0	-16.0	-87.6	98914.2	499.0	0.0	0.0	0.0	0.0	45.0	28.3	-2465.0	0.0	0.972787606716156	0.6969899952411651	0.0	2058.0	2049.6	2570.8	72.0	72.0	72.0	72.0	168091396.8
2017-08-10 12:48:16.900	0.0	-0.25	0.0	0.0	7.0	35.0	41.111111111111114	-4.0	-91.77777777777777	98912.66666666667	499.0	0.0	0.0	0.0	0.0	43.44444444444444	32.22222222222222	-2477.222222222222	0.0	1.0683987670474582	0.23849553573462698	0.0	2056.8888888888887	2046.2222222222222	2572.0	72.0	72.0	72.0	72.0	168138996.8888889
2017-08-10 12:48:16.950	0.0	-0.25	0.0	0.0	7.0	35.0	39.4	-14.6	-90.6	98917.8	499.0	0.0	0.0	0.0	0.0	53.7	19.4	-2474.0	0.0	1.3128821671009063	0.2657743446528912	0.0	2061.2	2051.2	2570.4	72.0	72.0	72.0	72.0	168186700.0
2017-08-10 12:48:17.000	0.0	-0.25	0.0	0.0	7.0	35.0	36.2	-11.8	-91.4	98914.5	499.0	0.0	0.0	0.0	0.0	62.7	15.0	-2463.4	0.0	1.2089641571044922	0.15412802323698999	0.0	2057.2	2047.6	2570.0	72.0	72.0	72.0	72.0	168236709.0
2017-08-10 12:48:17.050	0.0	-0.25	0.0	0.0	7.0	35.0	39.2	-12.8	-92.4	98917.5	499.0	0.0	0.0	0.0	0.0	65.2	21.0	-2462.8	0.0	0.8305354118347168	0.5010216706665233	0.0	2056.8	2048.4	2570.8	72.0	72.0	72.0	72.0	168286898.1
2017-08-10 12:48:17.100	0.0	-0.25	0.0	0.0	7.0	35.0	38.2	-14.2	-93.4	98923.8	499.0	0.0	0.0	0.0	0.0	68.9	22.3	-2468.6	0.0	0.7380612395703793	-0.054498266428709016	0.0	2056.0	2047.2	2572.4	72.0	72.0	72.0	72.0	168337014.3
2017-08-10 12:48:17.150	0.0	-0.25	0.0	0.0	7.0	35.0	38.6	-13.8	-92.2	98925.6	499.0	0.0	0.0	0.0	0.0	78.5	18.4	-2463.1	0.0	0.6661913678050041	0.13261733241379262	0.0	2058.4	2046.8	2572.4	72.0	72.0	72.0	72.0	168387197.4
2017-08-10 12:48:17.200	0.0	-0.25	0.0	0.0	7.0	35.0	40.6	-12.6	-92.6	98920.2	499.0	0.0	0.0	0.0	0.0	83.7	21.2	-2465.0	0.0	0.3395331015344709	0.31505450457334516	0.0	2056.8	2048.4	2572.0	72.0	72.0	72.0	72.0	168437374.3
2017-08-10 12:48:17.250	0.0	-0.25	0.0	0.0	7.0	35.0	38.4	-13.6	-90.4	98921.4	499.0	0.0	0.0	0.0	0.0	87.4	20.5	-2469.4	0.0	0.0015139610681217165	-0.032652640342712404	0.0	2058.4	2050.8	2572.8	72.0	72.0	72.0	72.0	168487444.6
2017-08-10 12:48:17.300	0.0	-0.25	0.0	0.0	7.0	35.0	38.2	-12.2	-91.8	98921.7	499.0	0.0	0.0	0.0	0.0	98.9	21.9	-2464.8	0.0	0.006818882375955576	0.0020663693547248673	0.0	2056.8	2050.0	2570.8	72.0	72.0	72.0	72.0	168537569.7
2017-08-10 12:48:17.350	0.0	-0.25	0.0	0.0	7.0	35.0	37.6	-14.4	-89.2	98921.7	499.0	0.0	0.0	0.0	0.0	88.3	25.0	-2462.9	0.0	-0.06702681146562099	0.13541566114872694	0.0	2056.0	2046.8	2569.6	72.0	72.0	72.0	72.0	168587667.4
2017-08-10 12:48:17.400	0.0	-0.25	0.0	0.0	7.0	35.0	35.4	-15.4	-90.6	98922.0	499.0	0.0	0.0	0.0	0.0	89.7	20.0	-2464.8	0.0	0.17137041315436363	0.3630607608705759	0.0	2057.2	2049.6	2570.8	72.0	72.0	72.0	72.0	168637813.9
2017-08-10 12:48:17.450	0.0	-0.25	0.0	0.0	7.0	35.0	36.2	-13.0	-92.2	98917.5	499.0	0.0	0.0	0.0	0.0	92.3	26.9	-2457.6	0.0	0.22636845335364342	-0.24272637059912086	0.0	2057.2	2049.2	2574.0	73.1	73.5	73.6	74.0	168687990.8
2017-08-10 12:48:17.500	0.0	-0.25	0.0	0.0	7.0	36.4	39.4	-10.6	-91.0	98921.7	499.0	0.0	0.0	0.0	0.0	87.1	30.5	-2454.1	0.0	0.06236790716648102	-0.05207179356366396	0.0	2057.6	2048.0	2570.4	77.0	77.7	77.6	78.0	168738091.5
2017-08-10 12:48:17.550	0.0	-0.25	0.0	0.0	7.0	37.0	38.0	-13.6	-92.8	98918.4	499.0	0.0	0.0	0.0	0.0	89.1	28.3	-2462.9	0.0	-0.14487763084471225	0.3572672098875046	0.0	2058.0	2047.2	2571.6	80.5	82.0	80.9	82.3	168788247.3
2017-08-10 12:48:17.600	0.0	-0.25	0.0	0.0	7.0	37.0	38.6	-13.0	-89.4	98917.8	499.0	0.0	0.0	0.0	0.0	91.9	24.0	-2451.2	0.0	-0.36563191562891006	0.41456283181905745	0.0	2054.8	2048.0	2571.6	84.7	85.9	85.4	85.9	168838369.2
2017-08-10 12:48:17.650	0.0	-0.25	0.0	0.0	7.0	37.0	40.6	-16.2	-91.8	98919.6	499.0	0.0	0.0	0.0	0.0	85.6	15.2	-2465.5	0.0	-0.7918070197105408	0.8008416563272476	0.0	2055.2	2046.0	2571.2	88.3	90.2	88.7	90.8	168888482.3
2017-08-10 12:48:17.700	0.0	-0.25	0.0	0.0	7.0	37.0	37.4	-13.8	-92.6	98921.4	499.0	0.0	0.0	0.0	0.0	86.4	13.1	-2471.0	0.0	-0.5135627016425133	0.9243001759052276	0.0	2057.6	2047.2	2570.8	92.9	93.9	93.3	94.0	168938634.8
2017-08-10 12:48:17.750	0.0	-0.25	0.0	0.0	7.0	37.0	37.8	-11.8	-89.8	98919.0	499.0	0.0	0.0	0.0	0.0	78.1	11.8	-2457.8	0.0	0.0973290879279375	0.43833474814891815	0.0	2057.2	2048.8	2571.6	97.2	97.6	97.5	97.4	168988753.7
2017-08-10 12:48:17.800	0.0	-0.25	0.0	0.0	7.0	37.0	38.0	-12.4	-92.0	98916.6	499.0	0.0	0.0	0.0	0.0	69.7	18.3	-2517.1	0.0	-0.15141783207654952	0.07709420919418335	0.0	2054.8	2052.4	2572.8	96.6	106.3	97.0	106.1	169038930.8
2017-08-10 12:48:17.850	0.0	-0.25	0.0	0.0	7.0	37.0	37.8	-15.4	-95.4	98922.6	499.0	0.0	0.0	0.0	0.0	64.2	49.3	-2671.9	0.0	-1.1226940155029297	-1.7580974221229553	0.0	2058.0	2053.6	2572.0	98.3	112.4	98.8	112.5	169089095.6
2017-08-10 12:48:17.900	0.0	-0.25	0.0	0.0	7.0	37.0	37.6	-15.2	-92.8	98914.2	499.0	0.0	0.0	0.0	0.0	74.9	46.9	-2840.2	0.0	-0.871731223911047	-1.320189607143402	0.0	2053.2	2050.4	2571.6	101.0	117.9	102.2	117.2	169139141.5
2017-08-10 12:48:17.950	0.0	-0.25	0.0	0.0	7.0	37.0	39.6	-14.8	-91.2	98915.4	499.2	0.0	0.0	0.0	0.0	65.0	31.5	-3001.3	0.0	-0.9445075780153275	-0.17321289628744124	0.0	2060.0	2044.8	2570.4	105.9	120.4	106.5	121.2	169189285.0
2017-08-10 12:48:18.000	0.0	-0.25	0.0	0.0	7.0	37.0	37.8	-16.6	-93.8	98925.9	499.0	0.0	0.0	0.0	0.0	65.5	36.7	-3117.3	0.0	1.7881710559129715	1.716471254825592	0.0	2061.2	2046.8	2574.0	109.6	125.6	109.1	125.8	169239376.4
2017-08-10 12:48:18.050	0.0	-0.25	0.0	0.0	7.0	37.0	39.6	-14.8	-93.6	98919.6	499.0	0.0	0.0	0.0	0.0	72.6	4.9	-3116.9	0.0	1.0561453431844712	1.3350310742855072	0.0	2058.8	2044.0	2573.6	118.4	124.0	119.0	124.4	169289586.9
2017-08-10 12:48:18.100	0.0	-0.25	0.0	0.0	7.0	37.0	36.8	-13.6	-92.4	98918.1	499.0	0.0	0.0	0.0	0.0	41.4	4.8	-3059.1	0.0	-0.5512017473112791	2.7495078563690187	0.0	2051.6	2041.6	2572.8	124.7	126.5	124.2	126.8	169339669.3
2017-08-10 12:48:18.150	0.0	-0.25	0.0	0.0	7.0	37.0	38.666666666666664	-16.22222222222222	-90.44444444444444	98925.66666666667	499.0	0.0	0.0	0.0	0.0	34.0	-11.0	-2964.8888888888887	0.0	-1.7210746672418382	0.7266511246562004	0.0	2054.6666666666665	2051.5555555555557	2578.222222222222	129.77777777777777	127.66666666666667	131.44444444444446	128.22222222222223	169387349.0
2017-08-10 12:48:18.200	0.0	-0.25	0.0	0.0	7.0	37.0	37.81818181818182	-14.0	-91.45454545454545	98920.63636363637	499.1818181818182	0.0	0.0	0.0	0.0	52.54545454545455	-13.181818181818182	-2732.5454545454545	0.0	-0.277365274050019	0.7022445418617942	0.0	2055.2727272727275	2045.8181818181818	2576.0	139.63636363636363	127.72727272727273	138.27272727272728	127.63636363636364	169437430.0909091
2017-08-10 12:48:18.250	0.0	-0.25	0.0	0.0	7.0	37.0	38.6	-13.0	-93.4	98934.6	499.0	0.0	0.0	0.0	0.0	-16.9	-10.6	-2463.0	0.0	-1.0439692422747613	-0.13150392286479473	0.0	2051.2	2050.8	2569.6	146.2	128.5	146.9	128.6	169490102.7
2017-08-10 12:48:18.300	0.0	-0.25	0.0	0.0	7.0	37.0	38.0	-15.2	-89.2	98924.4	499.2	0.0	0.0	0.0	0.0	-37.1	-0.4	-2128.0	0.0	-2.7223400115966796	-0.8804961323738099	0.0	2052.0	2046.4	2574.4	154.2	128.9	153.9	128.7	169540154.7
2017-08-10 12:48:18.350	0.0	-0.25	0.0	0.0	7.0	37.0	40.4	-13.2	-92.8	98926.2	499.2	0.0	0.0	0.0	0.0	-32.2	8.9	-1820.7	0.0	-0.62955172508955	-1.7317558646202087	0.0	2058.8	2059.6	2575.2	157.8	134.2	156.7	133.3	169590365.2
2017-08-10 12:48:18.400	0.0	-0.25	0.0	0.0	7.0	37.0	38.888888888888886	-11.11111111111111	-89.77777777777777	98931.33333333333	499.55555555555554	0.0	0.0	0.0	0.0	-41.333333333333336	21.11111111111111	-1613.0	0.0	1.0053912070062425	-2.6245135731167264	0.0	2053.3333333333335	2050.222222222222	2578.6666666666665	160.0	139.22222222222223	159.55555555555554	138.66666666666666	169638010.1111111
2017-08-10 12:48:18.450	0.0	-0.25	0.0	0.0	7.0	37.0	38.0	-12.0	-89.81818181818181	98928.27272727272	500.0	0.0	0.0	0.0	0.0	-56.09090909090909	73.63636363636364	-1423.090909090909	0.0	2.0414351766759697	-1.8633441166444258	0.0	2061.818181818182	2052.7272727272725	2578.5454545454545	165.36363636363637	142.45454545454547	165.0909090909091	140.45454545454547	169688159.8181818
2017-08-10 12:48:18.500	0.0	-0.25	0.0	0.0	7.0	37.0	39.0	-14.6	-91.0	98930.7	499.2	0.0	0.0	0.0	0.0	-45.8	46.4	-1149.4	0.0	3.1747561931610107	-0.47649431265890596	0.0	2064.8	2052.8	2565.6	170.9	142.8	172.9	143.4	169740764.8
2017-08-10 12:48:18.550	0.0	-0.25	0.0	0.0	7.0	37.0	37.8	-15.0	-91.8	98931.0	499.4	0.0	0.0	0.0	0.0	-17.2	83.8	-1016.6	0.0	-0.18915992826223374	1.3870803758502006	0.0	2052.0	2045.2	2581.2	170.7	152.9	171.2	151.2	169790868.7
2017-08-10 12:48:18.600	0.0	-0.25	0.0	0.0	7.0	37.0	39.2	-11.2	-90.8	98931.0	499.2	0.0	0.0	0.0	0.0	-97.5	102.3	-1059.7	0.0	-1.0147058546543122	-1.0398786954581738	0.0	2048.8	2054.8	2580.8	170.0	162.5	167.9	161.5	169841009.0
2017-08-10 12:48:18.650	0.0	-0.25	0.0	0.0	7.0	37.0	38.888888888888886	-15.777777777777779	-92.88888888888889	98932.66666666667	499.77777777777777	0.0	0.0	0.0	0.0	-305.22222222222223	48.888888888888886	-1126.7777777777778	0.0	0.6652254462242126	-3.0528212123446994	0.0	2052.4444444444443	2061.3333333333335	2590.6666666666665	176.44444444444446	167.44444444444446	171.11111111111111	162.33333333333334	169888627.33333334
2017-08-10 12:48:18.700	0.0	-0.25	0.0	0.0	7.0	37.0	39.27272727272727	-16.363636363636363	-88.18181818181819	98932.09090909091	500.0	0.0	0.0	0.0	0.0	-915.0909090909091	46.63636363636363	-1070.8181818181818	0.0	2.3899686336517334	-2.1883356246081265	0.0	2040.0	2053.818181818182	2597.090909090909	187.72727272727272	169.8181818181818	176.36363636363637	159.63636363636363	169938772.9090909
2017-08-10 12:48:18.750	0.0	-0.25	0.0	0.0	7.0	37.0	39.0	-18.2	-90.6	98936.1	499.8	0.0	0.0	0.0	0.0	-2000.9	-30.4	-1144.8	0.0	5.143049049377441	-3.530283260345459	0.0	2041.2	2064.8	2604.0	190.0	186.2	167.4	166.4	169991405.9
2017-08-10 12:48:18.800	0.0	-0.25	0.0	0.0	7.0	37.0	39.4	-21.0	-89.4	98930.4	499.8	0.0	0.0	0.0	0.0	-3420.3	-368.1	-1373.8	0.0	14.81823205947876	-6.879041337966919	0.0	2048.0	2064.8	2615.2	194.6	194.5	157.4	173.3	170041622.3
2017-08-10 12:48:18.850	0.0	-0.25	0.0	0.0	7.0	37.0	42.6	-25.0	-88.6	98928.0	499.8	0.0	0.0	0.0	0.0	-4900.1	-1082.8	-1532.1	0.0	25.510782051086426	-12.405963706970216	0.0	2041.6	2064.0	2618.4	206.2	191.7	157.5	168.5	170091659.0
2017-08-10 12:48:18.900	0.0	-0.25	0.0	0.0	7.0	37.0	44.0	-28.666666666666668	-89.33333333333333	98920.66666666667	499.77777777777777	0.0	0.0	0.0	0.0	-6245.666666666667	-1723.3333333333333	-1526.5555555555557	0.0	36.826708475748696	-14.509435865614149	0.0	2036.4444444444443	2043.5555555555557	2590.6666666666665	214.22222222222223	189.55555555555554	160.33333333333334	163.77777777777777	170139305.44444445
2017-08-10 12:48:18.950	0.0	-0.25	0.0	0.0	7.0	37.0	45.1	-29.9	-86.1	98912.4	500.0	0.0	0.0	0.0	0.0	-7093.0	-2195.7	-1361.9	0.0	48.29042129516601	-14.083244132995606	0.0	2052.8	2040.8	2572.8	215.7	187.9	165.6	162.3	170186916.6
2017-08-10 12:48:19.000	0.0	-0.25	0.0	0.0	7.0	37.0	44.3	-28.1	-87.9	98918.4	500.0	0.0	0.0	0.0	0.0	-7611.5	-2101.7	-1411.8	0.0	59.359279251098634	-15.827757930755615	0.0	2062.8	2050.8	2559.6	208.1	197.9	164.2	165.4	170237108.9
2017-08-10 12:48:19.050	0.0	-0.25	0.0	0.0	7.0	37.0	43.4	-31.2	-88.6	98917.8	499.7	6.142523125163279e-06	33.452894592285155	0.0	0.0	-7255.5	-1456.2	19317.1	71.7	65.1272632598877	-10.038344669342042	0.0	2051.6	2022.8	2573.2	205.2	190.7	172.2	166.4	170323897.9
2017-08-10 12:48:19.100	0.0	-0.25	0.0	0.0	7.0	37.0	43.4	-31.2	-88.6	98917.8	499.7	6.142523125163279e-06	33.452894592285155	0.0	0.0	-7255.5	-1456.2	19317.1	71.7	65.1272632598877	-10.038344669342042	0.0	2051.6	2022.8	2573.2	205.2	190.7	172.2	166.4	170323897.9
2017-08-10 12:48:19.150	0.0	-0.25	0.0	0.0	7.0	37.0	46.0	-30.88888888888889	-87.11111111111111	98920.33333333333	500.0	0.0004319723229855299	50.640272776285805	0.0	0.0	-6329.555555555556	-1363.7777777777778	67626.88888888889	239.0	100.5106447007921	-14.756000730726454	0.0	2054.6666666666665	2040.4444444444443	2589.777777777778	234.33333333333334	214.0	197.77777777777777	196.33333333333334	170390153.1111111
2017-08-10 12:48:19.200	0.0	-0.25	0.0	0.0	7.0	37.0	45.8	-27.6	-88.2	98911.6	500.0	0.001262893941020593	66.07305450439453	0.0	0.0	-5714.0	-2112.7	67729.4	246.2	166.31639556884767	-32.3911319732666	0.0	2057.6	2036.8	2678.4	255.0	212.6	201.8	202.9	170437768.1
2017-08-10 12:48:19.250	0.0	-0.25	0.0	0.0	7.0	37.0	46.9	-27.1	-88.7	98913.2	499.8	0.003740828111767769	54.41825218200684	0.0	0.0	-5449.6	-3101.8	67918.4	248.0	209.3424514770508	-58.242437744140624	0.0	2050.8	2046.8	2642.4	255.0	202.3	190.7	190.6	170487841.4
2017-08-10 12:48:19.300	0.0	-0.25	0.0	0.0	7.0	37.0	51.2	-28.0	-88.4	98916.4	500.0	0.004961440339684486	47.22279090881348	0.0	0.0	-5331.3	-3849.8	68042.6	261.1	318.44483184814453	-118.68108444213867	0.0	2053.6	2055.6	2614.4	254.6	207.4	184.9	195.0	170538012.4
2017-08-10 12:48:19.350	0.0	-0.25	0.0	0.0	7.0	37.0	51.2	-22.4	-91.0	98902.8	500.0	0.005391610180959105	40.083060836791994	0.0	0.0	-4383.1	-3749.5	68089.1	285.8	788.9632507324219	-329.5886657714844	0.0	2058.0	2058.4	2597.6	250.5	194.1	163.4	170.6	170588140.5
2017-08-10 12:48:19.400	0.0	-0.25	0.0	0.0	7.0	37.0	45.7	-17.1	-90.3	98907.0	500.0	0.006255689542740583	37.91166343688965	0.0	0.0	-1897.5	-2177.8	68017.3	317.0	887.8343444824219	-385.1842803955078	0.0	2072.4	2054.0	2569.6	245.5	217.5	192.4	194.3	170638305.1
2017-08-10 12:48:19.450	0.0	-0.25	0.0	0.0	7.0	37.0	41.7	-11.1	-91.9	98906.4	500.0	0.007048603938892483	38.31534385681152	0.0	0.0	1263.5	-219.8	67845.9	357.5	831.3020874023438	-356.5714385986328	0.0	2045.6	2044.4	2619.6	237.5	224.7	209.4	210.4	170688402.8
2017-08-10 12:48:19.500	0.0	-0.25	0.0	0.0	7.0	36.6	40.1	-2.7	-94.3	98903.2	500.0	0.007522247778251767	36.74853782653808	0.0	0.0	4566.7	1781.5	67813.5	408.3	719.7989685058594	-302.3494049072266	0.0	2046.0	2042.8	2621.6	206.6	205.9	210.9	200.1	170738530.9
2017-08-10 12:48:19.550	0.0	-0.25	0.0	0.0	7.0	36.0	34.7	4.3	-97.5	98905.8	500.0	0.007929956074804068	37.93528594970703	0.0	0.0	7319.8	3296.3	67876.7	372.5	707.0493408203125	-304.1938720703125	0.0	2035.6	2030.0	2586.8	207.0	198.6	208.4	197.0	170788677.5
2017-08-10 12:48:19.600	0.0	-0.25	0.0	0.0	7.0	36.0	31.0	9.8	-94.2	98906.2	500.0	0.008181897550821304	37.603462600708006	0.0	0.0	9364.9	3909.5	68101.0	264.7	668.9820434570313	-331.1614196777344	0.0	2036.4	2037.6	2601.6	223.9	199.3	226.8	210.4	170838741.4
2017-08-10 12:48:19.650	0.0	-0.25	0.0	0.0	7.0	36.0	32.77777777777778	13.0	-94.11111111111111	98903.11111111111	500.0	0.008239867890046703	36.48341793484158	0.0	0.0	10783.333333333334	4301.666666666667	68268.33333333333	281.3333333333333	478.52059597439234	-223.4356655544705	0.0	2037.7777777777778	2038.6666666666667	2620.0	213.22222222222223	197.66666666666666	229.0	207.88888888888889	170886447.0
2017-08-10 12:48:19.700	0.0	-0.25	0.0	0.0	7.0	36.0	32.45454545454545	15.363636363636363	-95.72727272727273	98902.18181818182	500.0	0.008312152783301744	38.019892952658914	0.0	0.0	10897.09090909091	4273.818181818182	68289.72727272728	298.3636363636364	322.7401525324041	-107.97512539950284	0.0	2037.090909090909	2034.5454545454545	2606.5454545454545	216.0909090909091	202.0909090909091	229.0	207.54545454545453	170936520.0909091
2017-08-10 12:48:19.750	0.0	-0.25	0.0	0.0	7.0	36.0	34.4	15.2	-94.0	98907.0	500.0	0.008421715535223483	38.4362548828125	0.0	0.0	9930.9	3692.2	68291.1	315.2	143.32796630859374	-55.17793083190918	0.0	2049.2	2043.6	2599.2	225.2	202.5	228.2	208.1	170989278.7
2017-08-10 12:48:19.800	0.0	-0.25	0.0	0.0	7.0	36.0	35.2	11.0	-93.0	98907.6	500.0	0.008639106061309576	38.91544723510742	0.0	0.0	8189.3	2763.4	68223.1	330.6	110.56228179931641	-14.066465377807617	0.0	2055.2	2043.6	2600.0	226.2	204.7	211.7	204.0	171039364.0
2017-08-10 12:48:19.850	0.0	-0.25	0.0	0.0	7.0	36.0	38.1	6.3	-94.1	98911.2	500.0	0.008926308434456586	39.01723136901855	0.0	0.0	6113.4	1479.7	68184.5	345.7	83.11579971313476	34.52458038330078	0.0	2058.4	2050.0	2574.4	228.2	198.0	200.1	192.4	171089452.6
2017-08-10 12:48:19.900	0.0	-0.25	0.0	0.0	7.0	36.0	41.9	4.3	-92.9	98902.2	500.0	0.00895967148244381	37.928776550292966	0.0	0.0	4275.0	266.3	68223.9	356.4	27.291158294677736	109.12030487060547	0.0	2048.8	2054.8	2559.2	231.1	198.9	202.4	193.4	171139602.3
2017-08-10 12:48:19.950	0.0	-0.25	0.0	0.0	7.0	36.0	44.7	2.5	-92.5	98901.5	500.0	0.008846816886216403	36.68192329406738	0.0	0.0	3020.4	-882.6	68379.8	372.2	-46.25659236907959	111.49878387451172	0.0	2054.0	2048.8	2565.6	228.7	189.0	201.0	191.1	171189727.3
2017-08-10 12:48:20.000	0.0	-0.25	0.0	0.0	7.0	36.0	45.6	-1.4	-90.8	98902.5	500.0	0.008967711310833692	37.05077705383301	0.0	0.0	1859.1	-1714.3	68455.8	389.4	-130.08792114257812	50.853732872009275	0.0	2065.2	2046.0	2564.0	223.9	187.4	191.0	189.2	171239828.0
2017-08-10 12:48:20.050	0.0	-0.25	0.0	0.0	7.0	36.0	47.4	-5.4	-91.4	98903.7	500.0	0.009152519889175892	37.87064781188965	0.0	0.0	573.1	-2015.6	68521.5	408.0	-189.79478302001954	-19.97481460571289	0.0	2064.4	2054.4	2546.4	219.3	185.6	184.1	185.1	171290014.0
2017-08-10 12:48:20.100	0.0	-0.25	0.0	0.0	7.0	36.0	45.1	-8.1	-91.1	98905.9	500.0	0.005273263761773705	32.154466247558595	0.0	0.0	-824.6	-1869.7	68576.6	423.4	-161.92023010253905	-58.48393783569336	0.0	2064.4	2051.2	2530.0	223.3	187.3	181.7	178.8	171340163.7
2017-08-10 12:48:20.150	0.0	-0.25	0.0	0.0	7.0	36.0	45.5	-8.3	-91.5	98905.2	500.0	0.004626206029206515	31.834159660339356	0.0	0.0	-1861.5	-1406.8	68608.4	441.2	-118.62135772705078	-87.5279556274414	0.0	2062.4	2047.6	2527.2	217.8	188.9	179.3	173.8	171390194.1
2017-08-10 12:48:20.200	0.0	-0.25	0.0	0.0	7.0	36.0	43.3	-10.3	-91.5	98904.0	500.0	0.004746216023340822	24.70543212890625	0.0	0.0	-2368.8	-691.9	68568.9	457.4	-69.47866516113281	-93.49023361206055	0.0	2061.6	2041.2	2526.8	213.8	189.4	176.7	173.1	171440353.1
2017-08-10 12:48:20.250	0.0	-0.25	0.0	0.0	7.0	36.0	43.3	-11.1	-94.1	98903.2	500.0	0.004781018011271954	23.59603805541992	0.0	0.0	-2423.8	-166.4	68519.3	472.0	-53.61050987243652	-93.60125274658203	0.0	2065.2	2046.4	2526.0	210.0	188.4	176.8	173.1	171490493.3
2017-08-10 12:48:20.300	0.0	-0.25	0.0	0.0	7.0	36.0	42.5	-10.3	-94.3	98903.2	500.0	0.004670577216893434	24.212292861938476	0.0	0.0	-2315.2	343.0	68503.5	481.0	-39.347043418884276	-88.93464126586915	0.0	2058.4	2044.0	2523.2	213.4	189.5	182.8	173.4	171540661.1
2017-08-10 12:48:20.350	0.0	-0.25	0.0	0.0	7.0	36.0	40.7	-8.5	-96.1	98901.2	500.0	0.004334325576201082	26.702860260009764	0.0	0.0	-1979.4	644.1	68482.7	491.6	-20.47913303375244	-75.36569595336914	0.0	2054.4	2039.6	2528.8	211.1	188.9	182.2	176.0	171590777.2
2017-08-10 12:48:20.400	0.0	-0.25	0.0	0.0	7.0	36.0	40.888888888888886	-10.444444444444445	-92.88888888888889	98906.33333333333	500.0	0.003999403988321622	25.335032992892796	0.0	0.0	-1624.2222222222222	718.0	68423.44444444444	500.6666666666667	-12.713967535230848	-69.33479393853082	0.0	2059.5555555555557	2045.3333333333333	2535.1111111111113	209.44444444444446	189.44444444444446	179.88888888888889	178.88888888888889	171638478.1111111
2017-08-10 12:48:20.450	0.0	-0.25	0.0	0.0	7.0	36.0	41.4	-11.0	-94.2	98901.0	500.0	0.003792367409914732	23.868394660949708	0.0	0.0	-1331.3	666.4	68396.3	507.8	-5.423553562164306	-59.38699645996094	0.0	2055.2	2046.0	2539.2	212.6	188.2	182.7	177.9	171686046.9
2017-08-10 12:48:20.500	0.0	-0.25	0.0	0.0	7.0	35.45454545454545	40.18181818181818	-8.727272727272727	-93.81818181818181	98902.63636363637	500.0	0.003969173391603611	26.508942343971945	0.0	0.0	-1145.5454545454545	533.1818181818181	68408.81818181818	509.54545454545456	8.44714897329157	-51.46693801879883	0.0	2057.090909090909	2043.2727272727273	2546.5454545454545	221.27272727272728	193.72727272727272	189.0	183.27272727272728	171738727.45454547
2017-08-10 12:48:20.550	0.0	-0.25	0.0	0.0	7.0	34.0	39.333333333333336	-9.333333333333334	-93.33333333333333	98902.77777777778	500.0	0.0035952692851424217	28.25535053677029	0.0	0.0	-1002.5555555555555	453.77777777777777	68384.33333333333	509.22222222222223	17.30053530799018	-41.98870637681749	0.0	2054.222222222222	2047.111111111111	2568.8888888888887	226.0	203.11111111111111	194.33333333333334	192.66666666666666	171788804.33333334
2017-08-10 12:48:20.600	0.0	-0.25	0.0	0.0	7.0	34.0	41.09090909090909	-9.636363636363637	-92.72727272727273	98902.09090909091	500.0	0.0033363129054619508	28.13434566151012	0.0	0.0	-869.1818181818181	247.54545454545453	68353.09090909091	507.8181818181818	21.037375016645953	-35.30418846823952	0.0	2057.090909090909	2045.8181818181818	2589.818181818182	233.36363636363637	208.0909090909091	199.9090909090909	199.27272727272728	171838961.0
2017-08-10 12:48:20.650	0.0	-0.25	0.0	0.0	7.0	34.0	43.77777777777778	-8.88888888888889	-94.88888888888889	98908.77777777778	500.0	0.0030094251140124267	20.738881958855522	0.0	0.0	-923.6666666666666	-74.66666666666667	68346.44444444444	519.2222222222222	17.54251554277208	-34.08247629801432	0.0	2048.8888888888887	2054.222222222222	2595.5555555555557	229.66666666666666	199.88888888888889	190.44444444444446	191.22222222222223	171889058.1111111
2017-08-10 12:48:20.700	0.0	-0.25	0.0	0.0	7.0	34.0	42.63636363636363	-9.727272727272727	-92.45454545454545	98907.0	500.0	0.0032418649008666926	10.244512731378729	0.0	0.0	-1014.4545454545455	-272.90909090909093	68318.90909090909	507.90909090909093	22.199485778808594	-38.651580116965555	0.0	2050.181818181818	2050.5454545454545	2580.7272727272725	244.54545454545453	216.8181818181818	206.9090909090909	207.54545454545453	171939247.27272728
2017-08-10 12:48:20.750	0.0	-0.25	0.0	0.0	7.0	34.0	42.55555555555556	-11.666666666666666	-91.88888888888889	98901.55555555556	500.0	0.002708375117638045	-1.2260478337605796	0.0	0.0	-1222.4444444444443	-665.4444444444445	68346.33333333333	505.77777777777777	23.910175535413956	-33.39699914720323	0.0	2052.0	2048.4444444444443	2622.6666666666665	251.88888888888889	213.77777777777777	204.11111111111111	206.44444444444446	171989328.44444445
2017-08-10 12:48:20.800	0.0	-0.25	0.0	0.0	7.0	34.0	44.6	-10.6	-93.4	98910.0	500.0	0.0027130878763273357	-5.0874104499816895	0.0	0.0	-1629.7	-1269.5	68504.2	509.3	24.763831520080565	-38.78893814086914	0.0	2063.2	2049.6	2614.0	255.0	204.9	199.6	198.4	172036992.7
2017-08-10 12:48:20.850	0.0	-0.25	0.0	0.0	7.0	34.0	46.2	-13.4	-92.2	98905.8	500.0	0.0030130918603390455	3.9149735450744627	0.0	0.0	-2118.5	-1993.9	68579.7	517.0	42.31798973083496	-49.34464530944824	0.0	2062.4	2050.4	2600.0	254.3	205.1	193.8	198.7	172087108.9
2017-08-10 12:48:20.900	0.0	-0.25	0.0	0.0	7.0	34.0	51.2	-9.6	-90.4	98903.4	500.0	0.0032628749031573534	7.379465198516845	0.0	0.0	-2283.4	-2398.7	68678.6	524.8	61.00810356140137	-71.72870864868165	0.0	2064.0	2051.2	2590.4	252.9	203.3	194.5	199.4	172137282.7
2017-08-10 12:48:20.950	0.0	-0.25	0.0	0.0	7.0	34.0	47.0	-13.0	-91.0	98905.9	500.0	0.0035136021673679353	0.21025925874710083	0.0	0.0	-2136.3	-2465.4	68719.4	533.3	65.30081176757812	-92.64862365722657	0.0	2055.6	2052.8	2589.6	249.4	202.2	194.8	198.0	172187389.5
2017-08-10 12:48:21.000	0.0	-0.25	0.0	0.0	7.0	34.0	47.8	-14.2	-90.6	98902.2	500.0	0.0038183057913556695	-0.09289629459381113	0.0	0.0	-1873.3	-2008.5	68816.3	542.0	75.84449157714843	-115.71128997802734	0.0	2060.8	2051.2	2587.2	246.5	199.8	198.6	192.4	172237536.1
2017-08-10 12:48:21.050	0.0	-0.25	0.0	0.0	7.0	34.0	45.6	-12.8	-92.8	98906.1	500.0	0.003797720349393785	4.419211196899414	0.0	0.0	-1497.7	-1422.3	68849.8	552.1	89.60505447387695	-116.31428985595703	0.0	2058.8	2045.2	2586.8	239.9	200.0	195.6	191.7	172287713.2
2017-08-10 12:48:21.100	0.0	-0.25	0.0	0.0	7.0	34.0	46.0	-10.0	-93.6	98907.2	500.0	0.004937430005520582	13.363242816925048	0.0	0.0	-1054.9	-713.6	68869.9	563.7	116.87572631835937	-125.17660903930664	0.0	2062.0	2046.8	2578.4	234.0	199.4	194.2	188.3	172337783.5
2017-08-10 12:48:21.150	0.0	-0.25	0.0	0.0	7.0	34.0	43.6	-7.2	-91.6	98905.9	500.0	0.005660226428881287	20.017719650268553	0.0	0.0	-248.3	47.8	68820.9	576.1	149.62470092773438	-125.82616958618163	0.0	2061.6	2047.2	2568.0	223.9	196.7	195.0	189.7	172387960.3
2017-08-10 12:48:21.200	0.0	-0.25	0.0	0.0	7.0	34.0	42.8	-4.4	-94.4	98903.8	500.0	0.005465112207457423	15.350525283813477	0.0	0.0	934.6	897.2	68752.2	587.5	141.83078002929688	-124.07370300292969	0.0	2048.4	2039.2	2563.2	216.4	196.3	197.1	190.3	172438042.7
2017-08-10 12:48:21.250	0.0	-0.25	0.0	0.0	7.0	34.0	39.8	-1.0	-93.8	98905.6	500.0	0.004899251088500023	16.746791267395018	0.0	0.0	1920.1	1570.3	68750.1	599.7	123.85245056152344	-107.59832229614258	0.0	2040.8	2037.6	2552.0	214.2	191.2	197.9	188.4	172488225.8
2017-08-10 12:48:21.300	0.0	-0.25	0.0	0.0	7.0	34.0	41.2	-2.0	-96.0	98905.0	500.0	0.004120046552270651	5.600886975228787	0.0	0.0	2557.3	1931.4	68737.1	611.2	88.16863708496093	-89.91024475097656	0.0	2043.2	2043.6	2549.2	213.1	190.9	197.0	186.8	172538323.6
2017-08-10 12:48:21.350	0.0	-0.25	0.0	0.0	7.0	34.0	40.8	-3.2	-94.4	98904.7	500.0	0.004203313565813005	18.108966064453124	0.0	0.0	2621.5	2130.0	68766.7	621.2	99.17529983520508	-61.05661125183106	0.0	2051.6	2039.2	2552.0	206.1	186.5	209.2	184.8	172588543.3
2017-08-10 12:48:21.400	0.0	-0.25	0.0	0.0	7.0	34.0	37.4	-0.6	-93.0	98902.5	500.0	0.0025553599814884366	4.979333198070526	0.0	0.0	2235.6	1780.7	68725.4	629.3	76.15138092041016	-32.90486192703247	0.0	2037.6	2036.4	2565.2	197.3	184.4	208.7	196.6	172638610.5
2017-08-10 12:48:21.450	0.0	-0.25	0.0	0.0	7.0	34.0	41.8	-7.0	-93.0	98905.5	500.0	0.001401305734179914	-2.7483846664428713	0.0	0.0	245.3	500.0	68595.8	638.4	42.90284805297851	-7.3751819133758545	0.0	2046.0	2043.6	2558.4	208.5	186.2	193.9	193.8	172688744.6
2017-08-10 12:48:21.500	0.0	-0.25	0.0	0.0	7.0	33.8	44.0	-10.8	-91.6	98905.0	500.0	0.002009457442909479	13.753875827789306	0.0	0.0	-2549.9	-716.9	68517.4	646.5	65.77318458557129	-17.547989749908446	0.0	2064.4	2051.6	2561.6	213.7	189.4	188.9	189.6	172738884.9
2017-08-10 12:48:21.550	0.0	-0.25	0.0	0.0	7.0	32.0	48.6	-18.2	-89.4	98900.0	500.0	0.0018515401519834996	11.433032608032226	0.0	0.0	-5157.9	-1455.8	68432.0	652.6	78.74281311035156	-31.84478931427002	0.0	2063.6	2048.0	2567.6	211.8	196.7	183.9	193.7	172789010.1
2017-08-10 12:48:21.600	0.0	-0.25	0.0	0.0	7.0	32.0	46.8	-25.2	-89.2	98905.0	500.0	0.0016545294551178814	-17.84450181722641	0.0	0.0	-7378.3	-1898.7	68423.6	657.5	91.96190643310547	-50.156201934814455	0.0	2059.2	2048.0	2566.4	220.3	194.5	190.6	187.2	172839144.3
2017-08-10 12:48:21.650	0.0	-0.25	0.0	0.0	7.0	32.0	47.2	-30.4	-90.4	98901.1	500.0	0.0014571729232557118	-42.29530143737793	0.0	0.0	-9307.3	-2089.3	68523.0	660.4	114.32538833618165	-65.36608047485352	0.0	2063.2	2053.6	2575.2	226.0	197.4	193.0	185.6	172889251.3
2017-08-10 12:48:21.700	0.0	-0.25	0.0	0.0	7.0	32.0	48.6	-31.8	-89.4	98910.2	500.0	0.0012793126748874783	13.611451721191406	0.0	0.0	-10821.0	-2220.6	68646.5	665.6	206.75634155273437	-74.67108612060547	0.0	2057.6	2046.4	2576.8	226.6	195.8	193.7	185.2	172939474.0
2017-08-10 12:48:21.750	0.0	-0.25	0.0	0.0	7.0	32.0	48.8	-35.6	-89.2	98904.1	500.0	0.001576375390868634	-0.40706663131713866	0.0	0.0	-11742.3	-2315.7	68722.3	669.8	286.96922912597654	-90.07574691772462	0.0	2055.2	2046.4	2578.4	225.8	195.2	196.1	186.0	172989501.3
2017-08-10 12:48:21.800	0.0	-0.25	0.0	0.0	7.0	32.0	46.6	-37.4	-87.4	98902.0	500.0	0.0019254063023254274	21.61209955215454	0.0	0.0	-12194.0	-2300.3	68700.3	675.9	386.6942413330078	-106.65548477172851	0.0	2060.0	2045.2	2570.8	219.7	195.0	192.9	189.6	173039651.1
2017-08-10 12:48:21.850	0.0	-0.25	0.0	0.0	7.0	32.0	47.4	-37.8	-88.2	98906.7	500.0	0.003016018169000745	10.484270930290222	0.0	0.0	-12263.1	-2247.3	68672.3	680.0	472.1982177734375	-137.3886344909668	0.0	2052.0	2050.0	2568.4	217.2	194.3	195.6	190.5	173089766.9
2017-08-10 12:48:21.900	0.0	-0.25	0.0	0.0	7.0	32.0	46.4	-38.8	-86.0	98903.6	500.0	0.003992566675879061	9.348028326034546	0.0	0.0	-12128.5	-2171.8	68623.3	685.3	558.8361389160157	-170.8570343017578	0.0	2041.2	2046.0	2566.4	215.9	190.2	197.3	189.5	173139916.5
2017-08-10 12:48:21.950	0.0	-0.25	0.0	0.0	7.0	32.0	48.2	-43.0	-85.8	98901.4	500.0	0.004079275578260422	9.53944354057312	0.0	0.0	-11853.5	-2054.8	68596.6	687.6	628.8071533203125	-183.2389709472656	0.0	2042.0	2040.0	2564.4	214.1	191.3	198.5	192.4	173190044.6
2017-08-10 12:48:22.000	0.0	-0.25	0.0	0.0	7.0	32.0	50.8	-41.6	-88.0	98902.6	500.0	0.004282114002853632	17.804101753234864	0.0	0.0	-11539.9	-1982.6	68605.0	690.3	712.9711242675781	-189.1541534423828	0.0	2037.2	2040.0	2562.4	215.2	187.9	202.3	190.7	173240194.2
2017-08-10 12:48:22.050	0.0	-0.25	0.0	0.0	7.0	32.0	49.0	-37.666666666666664	-89.0	98904.77777777778	500.0	0.004485981487151649	26.337469736735027	0.0	0.0	-11235.666666666666	-1885.3333333333333	68652.55555555556	693.0	794.3205837673611	-192.53279961480035	0.0	2032.888888888889	2040.0	2568.0	215.22222222222223	186.0	203.77777777777777	189.44444444444446	173287790.44444445
2017-08-10 12:48:22.100	0.0	-0.25	0.0	0.0	7.0	32.0	48.45454545454545	-38.81818181818182	-87.36363636363636	98905.0	500.0	0.005261686842211268	37.76896077936346	0.0	0.0	-10889.09090909091	-1844.0	68644.90909090909	691.8181818181819	893.9287386807529	-188.29437949440697	0.0	2034.1818181818182	2044.0	2574.909090909091	214.27272727272728	189.54545454545453	204.72727272727272	195.8181818181818	173337962.1818182
2017-08-10 12:48:22.150	0.0	-0.25	0.0	0.0	3.1	32.0	50.8	-38.4	-86.8	98902.0	500.0	0.006291409395635128	37.46371269226074	0.0	0.0	-10399.7	-1798.0	68659.1	687.5	970.8888610839844	-200.20883483886718	0.0	2026.0	2038.4	2562.0	205.5	176.4	194.2	183.4	173390560.4
2017-08-10 12:48:22.200	0.0	-0.25	0.0	0.0	3.0	32.0	50.22222222222222	-38.666666666666664	-88.44444444444444	98908.55555555556	500.0	0.0052740564569830894	33.07863532172309	0.0	0.0	-9840.0	-1761.0	68587.77777777778	683.4444444444445	1021.8480767144097	-210.5079345703125	0.0	2018.2222222222222	2040.0	2533.3333333333335	199.88888888888889	181.22222222222223	196.55555555555554	191.88888888888889	173438218.2222222
2017-08-10 12:48:22.250	0.0	-0.25	0.0	0.0	3.0	32.0	48.5	-37.3	-88.3	98903.4	500.0	0.005836454825475812	33.585105895996094	0.0	0.0	-9568.2	-1638.5	68529.9	682.2	1117.411865234375	-236.25923919677734	0.0	2016.8	2034.8	2544.8	200.9	180.8	197.4	192.5	173485778.3
2017-08-10 12:48:22.300	0.0	-0.25	0.0	0.0	3.0	32.0	48.81818181818182	-37.18181818181818	-87.54545454545455	98906.36363636363	500.0	0.008022339252585714	28.05025291442871	0.0	0.0	-9340.181818181818	-1619.3636363636363	68501.27272727272	677.3636363636364	1175.591708096591	-265.5885037508878	0.0	2027.2727272727273	2044.0	2553.4545454545455	204.63636363636363	180.72727272727272	200.72727272727272	193.36363636363637	173538509.8181818
2017-08-10 12:48:22.350	0.0	-0.25	0.0	0.0	3.0	32.0	49.666666666666664	-37.888888888888886	-86.77777777777777	98904.66666666667	500.0	0.00933751453542047	24.827313317192925	0.0	0.0	-9209.111111111111	-1625.2222222222222	68480.0	667.0	1217.2939995659722	-286.5062018500434	0.0	2023.5555555555557	2044.0	2568.4444444444443	207.11111111111111	184.88888888888889	202.22222222222223	196.66666666666666	173588653.1111111
2017-08-10 12:48:22.400	0.0	-0.25	0.0	0.0	3.0	32.0	50.27272727272727	-37.72727272727273	-87.18181818181819	98901.90909090909	500.0	0.009548780000345274	22.207676107233222	0.0	0.0	-9339.363636363636	-1577.7272727272727	68436.54545454546	656.0	1252.504150390625	-284.2968472567472	0.0	2020.0	2038.5454545454545	2571.6363636363635	210.0909090909091	188.8181818181818	202.8181818181818	198.9090909090909	173638762.9090909
2017-08-10 12:48:22.450	0.0	-0.25	0.0	0.0	3.0	32.0	51.22222222222222	-38.77777777777778	-85.66666666666667	98904.77777777778	500.0	0.010540644431279765	20.938372294108074	0.0	0.0	-9430.0	-1564.2222222222222	68408.0	646.6666666666666	1322.371609157986	-279.216790093316	0.0	2019.111111111111	2044.4444444444443	2576.8888888888887	211.11111111111111	189.66666666666666	204.88888888888889	200.33333333333334	173688876.33333334
2017-08-10 12:48:22.500	0.0	-0.25	0.0	0.0	3.0	32.0	50.5	-38.7	-85.5	98898.2	500.0	0.01106922496110201	19.01039390563965	0.0	0.0	-9467.2	-1489.2	68359.7	638.3	1363.5287963867188	-254.97059631347656	0.0	2018.0	2044.0	2577.2	211.0	191.7	204.7	202.4	173736468.0
2017-08-10 12:48:22.550	0.0	-0.25	0.0	0.0	3.0	29.3	47.9	-39.1	-85.3	98909.0	500.0	0.011635532882064582	18.050788497924806	0.0	0.0	-9616.5	-1378.2	68322.2	629.9	1412.1507446289063	-212.46220855712892	0.0	2018.0	2043.2	2588.0	212.9	192.8	206.5	200.7	173786696.8
2017-08-10 12:48:22.600	0.0	-0.25	0.0	0.0	3.0	29.0	48.8	-42.4	-87.0	98897.2	500.0	0.011990028619766235	17.99038906097412	0.0	0.0	-9746.6	-1219.4	68327.5	623.3	1483.368994140625	-190.95289306640626	0.0	2010.4	2037.6	2584.0	213.8	191.8	208.9	199.1	173836739.7
2017-08-10 12:48:22.650	0.0	-0.25	0.0	0.0	3.0	29.0	49.9	-44.1	-86.1	98898.6	500.0	0.012050940282642841	16.391973114013673	0.0	0.0	-9675.0	-972.7	68314.1	616.3	1544.6131225585937	-190.2862564086914	0.0	2011.2	2038.8	2585.6	209.7	193.6	209.2	203.3	173886874.0
2017-08-10 12:48:22.700	0.0	-0.25	0.0	0.0	3.0	29.0	49.8	-42.2	-87.2	98898.4	500.0	0.01219128891825676	15.797832679748534	0.0	0.0	-9521.4	-758.4	68217.5	608.8	1608.3455322265625	-241.69591217041017	0.0	2016.0	2044.4	2602.4	209.6	196.4	207.9	204.3	173936962.4
2017-08-10 12:48:22.750	0.0	-0.25	0.0	0.0	3.0	29.0	50.5	-45.1	-89.1	98897.7	500.0	0.012847959622740745	17.128661918640137	0.0	0.0	-9616.3	-600.4	68217.3	601.0	1744.1984985351562	-337.8063690185547	0.0	2010.4	2040.0	2583.6	213.4	195.5	211.2	201.9	173987188.2
2017-08-10 12:48:22.800	0.0	-0.25	0.0	0.0	3.0	29.0	49.5	-40.9	-86.9	98902.4	500.0	0.012845225725322961	14.874415588378906	0.0	0.0	-9528.7	-409.5	68223.7	594.0	1852.0671997070312	-362.7825469970703	0.0	1998.8	2044.0	2578.0	211.5	195.1	213.5	204.0	174037298.2
2017-08-10 12:48:22.850	0.0	-0.25	0.0	0.0	3.0	29.0	50.2	-43.0	-89.8	98894.0	500.0	0.012810172326862813	12.629978656768799	0.0	0.0	-9424.1	-274.8	68224.0	587.8	1880.2955200195313	-331.02207336425784	0.0	2002.8	2042.4	2585.6	212.0	195.5	213.3	204.6	174087398.9
2017-08-10 12:48:22.900	0.0	-0.25	0.0	0.0	3.0	29.0	47.9	-43.5	-90.3	98893.4	500.0	0.012754224054515362	10.892605972290038	0.0	0.0	-9302.7	-136.7	68149.0	581.8	1922.4795043945312	-298.9568328857422	0.0	1992.0	2038.0	2579.6	208.9	197.7	214.1	206.5	174137459.8
2017-08-10 12:48:22.950	0.0	-0.125	0.0	0.0	4.5	29.0	47.5	-43.5	-86.3	98901.0	500.0	0.012213605549186468	8.388578462600709	0.0	0.0	-9188.3	30.6	68237.4	575.1	1978.8040893554687	-327.4895446777344	0.0	1996.0	2036.0	2592.4	221.0	197.8	213.3	195.1	174187707.1
2017-08-10 12:48:23.000	0.0	0.0	0.0	0.25	8.0	29.0	45.7	-43.9	-89.1	98895.8	500.0	0.012186080776154995	8.259653615951539	0.0	0.0	-8818.7	99.3	68305.6	570.0	2006.2137329101563	-366.6049743652344	0.0	2008.8	2043.6	2579.6	222.5	201.0	205.9	191.7	174237813.9
2017-08-10 12:48:23.050	0.0	0.0	0.0	0.25	8.0	29.0	45.6	-40.6	-89.8	98896.1	500.0	0.011955072451382876	6.772358512878418	0.0	0.0	-7304.5	212.0	68247.0	565.5	2117.4072265625	-300.13007202148435	0.0	1993.2	2033.2	2569.6	212.4	200.1	206.2	202.9	174287935.8
2017-08-10 12:48:23.100	0.0	0.0	0.0	0.25	8.0	29.0	44.4	-33.0	-93.0	98898.8	500.0	0.011377932317554951	2.391844171285629	0.0	0.0	-5126.7	259.9	68236.2	561.3	2070.6045654296877	-249.94381866455078	0.0	1982.4	2038.0	2586.4	212.3	194.9	211.7	203.4	174338042.8
2017-08-10 12:48:23.150	0.0	0.0	0.0	0.25	8.0	29.0	42.2	-28.6	-93.0	98904.8	500.0	0.010881551168859005	-0.005500875599682331	0.0	0.0	-2954.6	371.3	68247.0	557.9	2029.2709594726562	-250.9162811279297	0.0	1990.0	2031.2	2599.6	211.7	194.3	212.5	203.4	174388189.2
2017-08-10 12:48:23.200	0.0	0.0	0.0	0.25	8.0	29.0	41.6	-24.4	-92.2	98893.6	500.0	0.01044862437993288	-2.3075507998466493	0.0	0.0	-759.3	678.9	68245.5	555.1	1980.0030639648437	-232.07249908447267	0.0	1986.8	2035.6	2604.4	207.5	194.9	214.9	204.0	174438323.4
2017-08-10 12:48:23.250	0.0	0.0	0.0	0.25	8.0	29.0	42.1	-18.7	-95.3	98899.8	500.0	0.010090942028909922	-4.425450158119202	0.0	0.0	1579.5	1207.0	68199.1	553.8	1915.0385864257812	-208.8563980102539	0.0	1998.0	2032.4	2620.8	201.9	195.7	215.6	206.1	174488414.8
2017-08-10 12:48:23.300	0.0	0.0	0.0	0.25	8.0	29.0	43.1	-12.5	-95.7	98902.8	500.0	0.009862339310348033	-6.255200481414795	0.0	0.0	3849.8	1396.5	68232.9	554.6	1833.8492797851563	-186.5365737915039	0.0	1990.4	2042.0	2626.4	205.7	188.3	216.0	206.4	174538561.5
2017-08-10 12:48:23.350	0.0	0.0	0.0	0.25	8.0	29.0	42.8	-7.4	-93.4	98896.6	500.0	0.009808229748159647	-9.473559951782226	0.0	0.0	6048.9	1198.1	68298.7	554.7	1734.0226440429688	-169.3675323486328	0.0	1990.0	2037.2	2625.2	206.3	184.2	216.1	208.8	174588689.7
2017-08-10 12:48:23.400	0.0	0.0	0.0	0.25	8.0	29.0	45.22222222222222	-2.5555555555555554	-95.88888888888889	98902.77777777778	500.0	0.00971093297832542	-12.976705763075087	0.0	0.0	8226.333333333334	748.2222222222222	68309.44444444444	557.2222222222222	1613.0176323784722	-151.43988376193576	0.0	1986.6666666666667	2034.2222222222222	2623.1111111111113	204.66666666666666	180.0	214.0	213.22222222222223	174640831.33333334
2017-08-10 12:48:23.450	0.0	0.0	0.0	0.25	8.0	29.0	46.4	5.6	-93.6	98900.4	500.0	0.009645533375442028	-16.512345790863037	0.0	0.0	10077.4	378.8	68270.2	560.8	1485.5296264648437	-138.00527801513672	0.0	1994.0	2046.4	2622.8	202.6	181.4	211.5	213.7	174688964.3
2017-08-10 12:48:23.500	0.0	0.0	0.0	0.25	8.0	29.0	49.3	7.5	-91.5	98897.4	500.0	0.009630409069359303	-18.717082023620605	0.0	0.0	11449.8	227.1	68225.4	565.6	1381.8675903320313	-121.43493041992187	0.0	2004.8	2048.4	2616.8	203.3	181.1	210.9	210.9	174739095.5
2017-08-10 12:48:23.550	0.0	0.0	0.0	0.25	8.0	27.4	49.0	11.0	-91.4	98894.4	500.0	0.00968693122267723	-20.863166046142577	0.0	0.0	12367.0	260.7	68229.9	572.9	1363.3222778320312	-84.46351318359375	0.0	2005.6	2052.4	2610.4	204.9	180.8	210.0	206.5	174789214.5
2017-08-10 12:48:23.600	0.0	0.0	0.0	0.25	8.0	27.0	47.6	11.4	-91.2	98902.2	500.0	0.009717298299074173	-23.04241008758545	0.0	0.0	12855.3	203.6	68149.6	581.6	1359.3067138671875	-88.02611541748047	0.0	2005.6	2042.8	2594.4	201.8	184.4	202.6	209.9	174839406.8
2017-08-10 12:48:23.650	0.0	0.0	0.0	0.25	8.0	27.0	47.2	16.0	-90.4	98897.2	500.0	0.009794598165899514	-25.72502212524414	0.0	0.0	12942.1	27.4	68017.2	589.8	1321.8412841796876	-129.00816192626954	0.0	2010.4	2048.0	2596.0	203.1	186.0	198.1	208.1	174889480.1
2017-08-10 12:48:23.700	0.0	0.0	0.0	0.25	8.0	27.0	48.0	13.2	-90.0	98899.2	500.0	0.009896472468972206	-27.650578689575195	0.0	0.0	12597.8	-242.1	67935.7	598.4	1195.957861328125	-161.9223602294922	0.0	2010.4	2049.6	2599.2	206.5	184.7	195.6	206.2	174939620.6
2017-08-10 12:48:23.750	0.0	0.0	0.0	0.25	8.0	27.0	48.7	13.1	-90.7	98895.2	500.0	0.010017358884215354	-29.309936904907225	0.0	0.0	12013.8	-697.4	67819.9	609.2	1067.5486206054688	-160.96946563720704	0.0	2026.8	2051.2	2595.6	205.6	187.3	188.7	207.4	174989812.8
2017-08-10 12:48:23.800	0.0	0.0	0.0	0.25	8.0	27.0	51.5	10.1	-90.1	98903.0	500.0	0.010129758063703776	-30.461166191101075	0.0	0.0	11129.5	-1183.1	67682.4	620.0	958.8821838378906	-142.02540130615233	0.0	2030.8	2054.8	2593.2	207.7	187.6	184.4	206.6	175039846.2
2017-08-10 12:48:23.850	0.0	0.0	0.0	0.25	8.0	27.0	50.1	9.1	-91.1	98901.6	500.0	0.010228806361556052	-31.406674766540526	0.0	0.0	10165.9	-1505.4	67593.4	631.9	867.514404296875	-117.5950813293457	0.0	2030.0	2050.8	2583.2	206.9	187.2	183.4	205.1	175090026.4
2017-08-10 12:48:23.900	0.0	0.0	0.0	0.25	8.0	27.0	51.0	8.777777777777779	-90.55555555555556	98902.66666666667	500.0	0.010303686890337203	-32.893565283881294	0.0	0.0	9320.111111111111	-1470.5555555555557	67487.0	642.8888888888889	768.0258517795139	-108.92820824517145	0.0	2032.0	2049.777777777778	2572.4444444444443	203.77777777777777	187.88888888888889	182.77777777777777	205.22222222222223	175137610.0
2017-08-10 12:48:23.950	0.0	0.0	0.0	0.25	8.0	27.0	50.81818181818182	7.545454545454546	-92.45454545454545	98908.45454545454	500.0	0.010389027693732218	-34.35540563409979	0.0	0.0	8388.181818181818	-1264.7272727272727	67364.81818181818	651.1818181818181	675.9326615767045	-107.67503773082386	0.0	2027.2727272727273	2052.0	2573.090909090909	202.1818181818182	189.1818181818182	182.1818181818182	205.63636363636363	175187757.54545453
2017-08-10 12:48:24.000	0.0	0.0	0.0	0.25	8.0	27.0	48.55555555555556	5.888888888888889	-91.44444444444444	98895.22222222222	500.0	0.010471443438695537	-35.56076685587565	0.0	0.0	7415.0	-879.2222222222222	67285.22222222222	656.4444444444445	593.0254177517361	-105.97530449761285	0.0	2036.0	2047.111111111111	2574.222222222222	202.66666666666666	188.11111111111111	187.33333333333334	203.11111111111111	175237870.44444445
2017-08-10 12:48:24.050	0.0	0.0	0.0	0.25	8.0	27.0	48.8	3.6	-94.0	98906.7	500.0	0.013080148678272962	-24.212246894836426	0.0	0.0	6444.8	-434.4	67217.9	661.0	498.5681488037109	-111.21601028442383	0.0	2045.6	2050.4	2575.2	199.4	191.3	187.2	205.0	175285552.5
2017-08-10 12:48:24.100	0.0	0.0	0.0	0.25	8.0	27.0	47.0	1.4	-91.0	98907.5	500.0	0.023450098186731338	22.942938232421874	0.0	0.0	5080.9	47.0	67063.2	666.0	399.7614990234375	-122.8877784729004	0.0	2036.8	2050.0	2575.2	199.1	193.6	187.2	204.0	175340124.0
2017-08-10 12:48:24.150	0.0	0.0	0.0	0.25	8.0	27.0	47.666666666666664	-2.5555555555555554	-93.88888888888889	98902.55555555556	500.0	0.023897774724496737	15.396132363213432	0.0	0.0	3629.222222222222	360.8888888888889	67107.0	668.5555555555555	330.43967692057294	-122.60789913601346	0.0	2036.0	2047.111111111111	2563.5555555555557	206.77777777777777	190.22222222222223	193.44444444444446	195.88888888888889	175388345.7777778
2017-08-10 12:48:24.200	0.0	0.0	0.0	0.25	8.0	27.0	45.54545454545455	-6.090909090909091	-95.36363636363636	98904.81818181818	500.0	0.0228410368277268	14.440240253101695	0.0	0.0	1844.4545454545455	533.2727272727273	67179.0	673.1818181818181	299.7980457652699	-116.44068561900745	0.0	2036.3636363636363	2048.3636363636365	2563.6363636363635	207.72727272727272	192.54545454545453	191.54545454545453	193.27272727272728	175438409.36363637
2017-08-10 12:48:24.250	0.0	0.0	0.0	0.25	8.0	27.0	47.3	-9.7	-93.5	98903.4	500.0	0.02175126541405916	14.750377655029297	0.0	0.0	-14.7	626.2	67234.0	676.1	297.10972595214844	-99.09967803955078	0.0	2050.4	2036.4	2563.2	209.7	194.9	191.6	190.6	175491131.2
2017-08-10 12:48:24.300	0.0	0.0	0.0	0.25	8.0	27.0	46.22222222222222	-14.0	-92.66666666666667	98905.11111111111	500.0	0.021399209689762857	15.358019087049696	0.0	0.0	-1407.5555555555557	549.5555555555555	67298.88888888889	679.0	294.80674913194446	-92.35318162706163	0.0	2050.222222222222	2043.5555555555557	2564.0	211.88888888888889	194.33333333333334	190.77777777777777	190.33333333333334	175538689.0
2017-08-10 12:48:24.350	0.0	0.0	0.0	0.25	8.0	27.0	47.27272727272727	-13.818181818181818	-94.54545454545455	98904.18181818182	500.0	0.021620760756460102	9.463255535472523	0.0	0.0	-2426.181818181818	338.1818181818182	67409.81818181818	681.4545454545455	266.6870186545632	-89.19849881258878	0.0	2051.2727272727275	2049.4545454545455	2569.4545454545455	215.63636363636363	194.1818181818182	190.0	188.27272727272728	175588941.63636363
2017-08-10 12:48:24.400	0.0	0.0	0.0	0.25	8.0	27.0	46.22222222222222	-14.666666666666666	-94.22222222222223	98904.44444444444	500.0	0.02153423676888148	6.649552133348253	0.0	0.0	-2979.5555555555557	158.0	67485.88888888889	683.1111111111111	237.31849500868054	-83.75836096869574	0.0	2057.3333333333335	2044.888888888889	2572.8888888888887	219.33333333333334	196.33333333333334	185.55555555555554	188.22222222222223	175638949.44444445
2017-08-10 12:48:24.450	0.0	0.0	0.0	0.25	4.363636363636363	27.0	46.72727272727273	-13.636363636363637	-94.54545454545455	98907.63636363637	500.0	0.021922174671834164	7.911525076085871	0.0	0.0	-2857.6363636363635	194.9090909090909	67649.45454545454	685.0909090909091	217.47511014071378	-94.34188010475852	0.0	2054.909090909091	2044.0	2575.6363636363635	223.72727272727272	194.0	189.8181818181818	183.8181818181818	175689086.45454547
2017-08-10 12:48:24.500	0.0	0.0	0.0	0.25	4.0	27.0	41.111111111111114	-13.11111111111111	-94.66666666666667	98907.0	500.0	0.022172993669907253	8.673765818277994	0.0	0.0	-2108.1111111111113	475.44444444444446	67704.55555555556	688.0	198.56853569878473	-79.43551254272461	0.0	2054.222222222222	2046.6666666666667	2573.3333333333335	214.11111111111111	196.55555555555554	189.0	192.0	175739254.0
2017-08-10 12:48:24.550	0.0	0.0	0.0	0.25	4.0	25.8	45.4	-11.0	-91.8	98904.2	500.0	0.022394892945885658	8.945963096618652	0.0	0.0	-1284.0	737.1	67807.6	690.8	182.94387512207032	-78.49828300476074	0.0	2054.8	2050.0	2576.0	217.4	191.1	196.5	187.3	175786861.7
2017-08-10 12:48:24.600	0.0	0.0	0.0	0.25	4.0	25.0	42.4	-10.0	-97.2	98903.2	500.0	0.0223031148314476	9.664252376556396	0.0	0.0	-577.2	951.5	67946.0	694.4	171.70928039550782	-70.89429969787598	0.0	2050.4	2044.4	2577.6	216.4	190.9	195.4	189.7	175836956.4
2017-08-10 12:48:24.650	0.0	0.0	0.0	0.25	4.0	25.0	44.2	-10.2	-95.0	98903.4	500.0	0.02244576197117567	10.573385620117188	0.0	0.0	27.6	914.6	67987.5	698.6	142.0827178955078	-55.165909957885745	0.0	2052.4	2045.2	2580.0	213.6	192.1	192.8	193.7	175887102.8
2017-08-10 12:48:24.700	0.0	0.0	0.0	0.25	4.0	25.0	45.0	-7.222222222222222	-93.0	98903.66666666667	500.0	0.02274309057328436	12.181253963046604	0.0	0.0	308.8888888888889	778.4444444444445	67968.33333333333	701.8888888888889	101.62823316786024	-50.04458745320638	0.0	2054.6666666666665	2042.6666666666667	2579.5555555555557	213.33333333333334	194.11111111111111	191.11111111111111	195.44444444444446	175934725.8888889
2017-08-10 12:48:24.750	0.0	0.0	0.0	0.25	4.0	25.0	42.81818181818182	-8.272727272727273	-96.63636363636364	98902.81818181818	500.0	0.022820737382227726	13.531248352744363	0.0	0.0	231.36363636363637	634.2727272727273	67983.63636363637	704.8181818181819	64.77665814486417	-30.966846119273793	0.0	2050.909090909091	2046.1818181818182	2580.7272727272725	218.36363636363637	191.0909090909091	194.9090909090909	191.0909090909091	175984865.36363637
2017-08-10 12:48:24.800	0.0	0.0	0.0	0.25	4.0	25.0	46.6	-9.4	-93.4	98901.4	500.0	0.022910479083657266	14.281334495544433	0.0	0.0	-106.7	447.1	68092.5	708.2	25.76680736541748	-25.446824169158937	0.0	2055.6	2049.6	2584.8	220.3	192.6	193.0	191.3	176037514.7
2017-08-10 12:48:24.850	0.0	0.0	0.0	0.25	4.0	25.0	46.0	-12.4	-94.4	98902.7	500.0	0.02329634688794613	15.22450294494629	0.0	0.0	-731.5	230.1	68138.0	711.5	17.55616331100464	-22.257872772216796	0.0	2054.0	2050.8	2574.0	222.9	195.0	190.4	189.9	176087606.3
2017-08-10 12:48:24.900	0.0	0.0	0.0	0.25	4.0	25.0	45.6	-11.6	-95.2	98904.6	500.0	0.023328779637813567	15.61874179840088	0.0	0.0	-1322.0	38.5	68136.6	715.1	13.319860601425171	-1.9435384094715118	0.0	2052.4	2048.8	2577.2	221.6	197.9	188.5	191.6	176137826.0
2017-08-10 12:48:24.950	0.0	0.0	0.0	0.25	4.0	25.0	46.2	-12.6	-95.0	98904.0	500.0	0.017970849759876728	-12.402670669555665	0.0	0.0	-1729.3	-74.2	68139.2	717.5	0.15470672100782396	3.907282754778862	0.0	2055.2	2047.2	2576.8	221.8	199.0	188.7	192.4	176187877.8
2017-08-10 12:48:25.000	0.0	0.0	0.0	0.25	4.0	25.0	49.0	-12.6	-95.0	98898.1	500.0	0.01607789285480976	-24.65890464782715	0.0	0.0	-1971.2	-211.3	68104.3	720.4	-14.148890399932862	-17.884265327453612	0.0	2060.4	2056.4	2579.6	222.4	198.4	188.7	193.7	176238042.8
2017-08-10 12:48:25.050	0.0	0.0	0.0	0.25	4.0	25.0	46.6	-14.2	-94.2	98899.7	500.0	0.016518172062933444	-26.02829360961914	0.0	0.0	-2075.4	-235.5	68139.2	725.0	-34.46829700469971	-11.924387001991272	0.0	2054.0	2054.8	2579.6	224.0	194.6	192.8	191.1	176288125.1
2017-08-10 12:48:25.100	0.0	0.0	0.0	0.25	4.0	25.0	46.6	-15.0	-93.0	98903.8	500.0	0.016670135594904423	-27.95313262939453	0.0	0.0	-2188.5	-153.1	68150.2	729.1	-51.71943893432617	-11.152027028799058	0.0	2050.4	2047.2	2582.4	221.0	199.1	189.5	193.1	176338308.3
2017-08-10 12:48:25.150	0.0	0.0	0.0	0.25	4.0	25.0	46.4	-15.2	-93.2	98899.1	500.0	0.016582667268812655	-26.080476188659667	0.0	0.0	-2343.9	-125.2	68135.4	731.7	-52.340918350219724	-8.783357852697373	0.0	2065.2	2051.2	2581.6	223.5	198.6	190.9	192.8	176388399.7
2017-08-10 12:48:25.200	0.0	0.0	0.0	0.25	4.0	25.0	46.4	-14.0	-94.8	98901.4	500.0	0.01641496764495969	-28.348650169372558	0.0	0.0	-2475.6	-10.4	68103.2	738.1	-44.08579063415527	-8.898134958744048	0.0	2064.8	2051.2	2584.8	220.6	201.4	188.8	192.4	176438552.3
2017-08-10 12:48:25.250	0.0	0.0	0.0	0.25	4.0	25.0	43.8	-14.6	-95.0	98900.3	500.0	0.015161776263266803	-47.22146224975586	0.0	0.0	-2509.6	60.2	68141.0	742.6	-38.33900756835938	-16.949166417121887	0.0	2060.4	2050.0	2585.6	225.2	196.6	191.7	190.2	176488665.2
2017-08-10 12:48:25.300	0.0	0.0	0.0	0.25	4.0	25.0	45.2	-17.6	-92.0	98902.4	500.0	0.014925530645996332	-45.3321044921875	0.0	0.0	-2458.6	121.8	68157.2	750.8	-41.59426422119141	-15.942465019226074	0.0	2057.6	2050.8	2576.4	222.4	197.4	191.0	190.4	176538787.5
2017-08-10 12:48:25.350	0.0	0.0	0.0	0.25	4.0	25.0	44.0	-14.4	-94.4	98899.5	500.0	0.01469907509163022	-46.734738159179685	0.0	0.0	-2367.5	248.3	68238.9	757.5	-53.1194393157959	-8.13930101916194	0.0	2056.4	2046.0	2579.6	222.8	196.0	193.7	187.7	176588927.7
2017-08-10 12:48:25.400	0.0	0.0	0.0	0.25	4.0	25.0	45.0	-13.8	-93.0	98904.2	500.0	0.014528247062116861	-46.275416946411134	0.0	0.0	-2374.4	470.6	68291.6	764.8	-53.68762092590332	-8.99812884107232	0.0	2060.0	2052.4	2570.0	221.2	197.4	192.5	187.3	176639095.6
2017-08-10 12:48:25.450	0.0	0.0	0.0	0.25	4.0	25.0	43.666666666666664	-17.0	-94.33333333333333	98902.33333333333	500.0	0.015101519309812121	-59.859114752875435	0.0	0.0	-2336.0	587.2222222222222	68321.33333333333	771.3333333333334	-43.418351067437065	3.8094876541031732	0.0	2061.3333333333335	2046.6666666666667	2579.1111111111113	221.77777777777777	196.55555555555554	192.77777777777777	186.55555555555554	176686675.33333334
2017-08-10 12:48:25.500	0.0	0.0	0.0	0.25	4.0	25.0	42.2	-16.6	-94.4	98904.4	500.0	0.01423767041414976	-57.91818351745606	0.0	0.0	-2203.2	548.0	68284.9	775.8	-40.96528930664063	22.725583457946776	0.0	2070.4	2057.2	2579.2	218.6	199.3	190.1	191.3	176734319.7
2017-08-10 12:48:25.550	0.0	0.0	0.0	0.25	4.0	24.545454545454547	45.90909090909091	-15.727272727272727	-95.54545454545455	98900.45454545454	500.0	0.014065445739437233	-55.366491837935015	0.0	0.0	-1996.6363636363637	347.1818181818182	68287.72727272728	781.5454545454545	-45.217688126997515	22.627342310818758	0.0	2054.909090909091	2046.1818181818182	2576.0	221.27272727272728	196.1818181818182	192.0909090909091	190.0909090909091	176787047.8181818
2017-08-10 12:48:25.600	0.0	0.0	0.0	0.25	4.0	24.0	46.0	-15.2	-93.6	98901.5	500.0	0.01738606337457895	-64.20973358154296	0.0	0.0	-1889.2	246.0	68285.1	790.0	-52.09344367980957	28.998068237304686	0.0	2060.8	2048.0	2576.0	218.4	197.4	190.4	190.1	176839584.0
2017-08-10 12:48:25.650	0.0	0.0	0.0	0.25	4.0	24.0	45.6	-15.6	-94.8	98901.2	500.0	0.016606052219867707	-76.10339431762695	0.0	0.0	-1847.1	91.5	68269.3	797.5	-55.656046295166014	34.030501747131346	0.0	2055.6	2049.2	2572.0	219.5	195.2	189.9	189.7	176889736.4
2017-08-10 12:48:25.700	0.0	0.0	0.0	0.25	4.0	24.0	46.0	-15.6	-95.6	98905.6	500.0	0.016671346500515938	-79.47026138305664	0.0	0.0	-1824.5	-62.6	68242.3	804.2	-66.1735164642334	28.699311637878417	0.0	2053.2	2051.6	2569.6	218.1	196.5	188.3	190.9	176939852.4
2017-08-10 12:48:25.750	0.0	0.0	0.0	0.25	4.0	24.0	47.6	-17.2	-94.8	98903.3	500.0	0.016549476236104966	-81.38892135620117	0.0	0.0	-1976.8	-115.6	68335.5	811.2	-68.81844711303711	39.61187953948975	0.0	2058.4	2047.2	2572.0	223.7	192.7	193.9	182.6	176990005.1
2017-08-10 12:48:25.800	0.0	0.0	0.0	0.25	4.0	24.0	44.6	-16.6	-93.8	98900.8	500.0	0.018186043389141558	-84.70395889282227	0.0	0.0	-2152.4	-40.9	68352.9	819.8	-67.40424728393555	50.33800735473633	0.0	2060.4	2043.6	2566.0	217.3	196.8	188.2	186.1	177040084.3
2017-08-10 12:48:25.850	0.0	0.0	0.0	0.25	4.0	24.0	47.8	-17.0	-95.0	98905.3	500.0	0.018737965635955332	-92.55847778320313	0.0	0.0	-2175.5	-139.7	68338.6	826.4	-73.4084457397461	54.488464736938475	0.0	2061.6	2052.8	2563.6	217.7	194.6	188.6	186.2	177090258.3
2017-08-10 12:48:25.900	0.0	0.0	0.0	0.25	4.0	24.0	46.44444444444444	-16.666666666666668	-94.44444444444444	98901.33333333333	500.0	0.019002937608295016	-97.85619439019098	0.0	0.0	-2302.5555555555557	-206.44444444444446	68345.44444444444	832.0	-70.27899848090277	61.83431498209635	0.0	2056.8888888888887	2048.4444444444443	2562.6666666666665	219.22222222222223	195.44444444444446	188.22222222222223	183.55555555555554	177137833.66666666
2017-08-10 12:48:25.950	0.0	0.0	0.0	0.25	4.0	24.0	47.77777777777778	-19.333333333333332	-95.77777777777777	98902.0	500.0	0.01910681153337161	-98.71929846869574	0.0	0.0	-2353.222222222222	-328.77777777777777	68341.77777777778	837.7777777777778	-41.90258365207248	51.13527976142036	0.0	2059.1111111111113	2051.5555555555557	2562.222222222222	219.0	194.11111111111111	186.66666666666666	185.0	177182979.55555555
2017-08-10 12:48:26.000	0.0	0.0	0.0	0.25	4.0	24.0	48.54545454545455	-16.181818181818183	-95.45454545454545	98894.81818181818	500.0	0.01991784843531522	-96.43122447620739	0.0	0.0	-2190.2727272727275	-377.72727272727275	68320.36363636363	843.2727272727273	-42.78852774880149	40.57692978598855	0.0	2062.5454545454545	2054.181818181818	2561.4545454545455	214.72727272727272	195.9090909090909	185.8181818181818	187.0	177233148.27272728
2017-08-10 12:48:26.050	0.0	0.0	0.0	0.25	4.0	24.0	46.36363636363637	-14.727272727272727	-95.0909090909091	98907.72727272728	500.0	0.021718532354994255	-99.75740536776456	0.0	0.0	-1948.0	-327.8181818181818	68299.90909090909	849.3636363636364	-55.06030967018821	43.7510854547674	0.0	2053.4545454545455	2048.0	2562.909090909091	216.1818181818182	191.9090909090909	189.0909090909091	184.54545454545453	177288243.63636363
2017-08-10 12:48:26.100	0.0	0.0	0.0	0.25	4.0	24.0	47.111111111111114	-14.88888888888889	-96.66666666666667	98899.0	500.0	0.0227778320097261	-105.66389889187283	0.0	0.0	-1924.7777777777778	-344.55555555555554	68302.0	855.1111111111111	-60.63208219740126	47.96740934583876	0.0	2060.4444444444443	2052.4444444444443	2566.222222222222	215.44444444444446	193.88888888888889	185.77777777777777	184.22222222222223	177338388.55555555
2017-08-10 12:48:26.150	0.0	0.0	0.0	0.25	4.0	24.0	48.5	-16.5	-94.7	98901.2	500.0	0.022137768939137457	-109.98103561401368	0.0	0.0	-1966.4	-439.5	68331.0	860.5	-47.46984329223633	51.97874984741211	0.0	2058.0	2045.6	2563.6	216.4	192.4	185.7	183.0	177386007.1
2017-08-10 12:48:26.200	0.0	0.0	0.0	0.25	4.0	24.0	47.1	-16.7	-97.1	98906.7	500.0	0.02396621722728014	-107.69016723632812	0.0	0.0	-1957.3	-513.9	68370.5	866.9	-58.115515518188474	40.269244003295896	0.0	2061.2	2052.8	2559.2	217.2	188.9	187.4	181.0	177436260.5
2017-08-10 12:48:26.250	0.0	0.0	0.0	0.25	4.0	24.0	49.0	-17.2	-93.2	98898.1	500.0	0.024569191597402097	-105.70605010986328	0.0	0.0	-1963.6	-550.7	68402.5	868.5	-70.34745559692382	48.819532012939455	0.0	2062.4	2054.8	2560.0	217.0	190.9	187.3	182.3	177486275.8
2017-08-10 12:48:26.300	0.0	0.0	0.0	0.25	4.0	24.0	48.9	-16.9	-93.9	98901.4	500.0	0.024812334962189198	-108.31492691040039	0.0	0.0	-1981.6	-563.1	68430.9	869.5	-67.22349243164062	51.320803833007815	0.0	2059.6	2052.0	2565.2	216.1	191.9	188.0	183.5	177536410.1
2017-08-10 12:48:26.350	0.0	0.0	0.0	0.25	4.0	24.0	47.7	-17.3	-95.3	98896.9	500.0	0.026988727413117884	-111.80447769165039	0.0	0.0	-1986.6	-646.7	68385.3	869.4	-86.9983741760254	52.966743087768556	0.0	2052.4	2050.4	2564.8	215.8	193.9	186.2	186.5	177586556.5
2017-08-10 12:48:26.400	0.0	0.0	0.0	0.25	4.0	24.0	46.8	-17.0	-92.2	98903.5	500.0	0.02802074532955885	-113.59607772827148	0.0	0.0	-2138.5	-733.6	68394.3	871.1	-78.99203414916992	53.14638328552246	0.0	2054.0	2046.8	2564.0	217.2	193.3	187.1	183.2	177636718.2
2017-08-10 12:48:26.450	0.0	0.0	0.0	0.25	4.0	24.0	47.3	-22.3	-95.5	98893.4	500.0	0.029531857930123806	-113.75142288208008	0.0	0.0	-2321.1	-704.5	68383.9	871.0	-76.81313781738281	47.04401741027832	0.0	2060.4	2044.0	2566.8	216.1	195.7	185.3	184.9	177686800.8
2017-08-10 12:48:26.500	0.0	0.0	0.0	0.25	4.0	24.0	50.7	-18.3	-93.9	98896.1	500.0	0.03026247564703226	-115.73461608886718	0.0	0.0	-2409.6	-738.1	68375.7	871.0	-67.59429626464843	46.01113014221191	0.0	2060.8	2048.0	2567.2	217.7	194.2	186.7	183.2	177736931.9
2017-08-10 12:48:26.550	0.0	0.0	0.0	0.25	4.0	23.7	48.0	-19.4	-93.8	98894.9	500.0	0.03008784633129835	-117.0130714416504	0.0	0.0	-2549.0	-746.0	68349.6	865.4	-55.761142349243165	40.38780212402344	0.0	2059.2	2051.2	2564.8	220.6	197.7	186.5	184.5	177787041.7
2017-08-10 12:48:26.600	0.0	0.0	0.0	0.25	4.0	23.0	46.6	-19.2	-94.6	98901.0	500.0	0.029782438091933726	-116.93036346435547	0.0	0.0	-2541.8	-750.0	68376.8	867.9	-26.64278221130371	32.2637752532959	0.0	2063.6	2055.2	2575.2	219.8	193.4	187.6	183.2	177837209.5
2017-08-10 12:48:26.650	0.0	0.0	0.0	0.25	3.4	23.0	49.0	-21.8	-95.2	98896.3	500.0	0.03178536668419838	-117.80504684448242	0.0	0.0	-2245.0	-756.6	68363.6	858.5	-37.92790641784668	20.764819717407228	0.0	2057.2	2052.0	2571.2	198.8	226.5	156.2	212.8	177887325.6
2017-08-10 12:48:26.700	0.0	0.0	0.0	0.25	3.0	23.0	48.7	-17.5	-95.7	98897.2	500.0	0.03277786448597908	-115.51901245117188	0.0	0.0	-2017.3	-246.5	68892.4	847.4	-43.625278854370116	4.316205370426178	0.0	2053.6	2055.6	2569.6	203.8	228.2	166.1	205.3	177937505.8
2017-08-10 12:48:26.750	0.0	0.0	0.0	0.25	3.0	23.0	46.7	-19.3	-92.5	98896.7	500.0	0.033246612548828124	-115.4675193786621	0.0	0.0	-1522.0	260.8	69943.2	861.4	-32.814521408081056	2.4981412827968597	0.0	2064.4	2042.0	2578.8	201.5	212.0	171.5	198.1	177987594.0
2017-08-10 12:48:26.800	0.0	0.0	0.0	0.25	3.0	23.0	46.0	-13.6	-94.8	98899.1	500.0	0.03389962278306484	-117.80391998291016	0.0	0.0	-762.5	592.2	71026.6	872.7	-33.62333755493164	7.176587152481079	0.0	2059.2	2044.4	2562.0	199.0	204.6	173.5	194.8	178037795.5
2017-08-10 12:48:26.850	0.0	0.0	0.0	0.25	3.0	23.0	45.8	-8.8	-95.8	98900.5	500.0	0.034149575605988504	-116.49396057128907	0.0	0.0	-157.0	646.7	72256.5	874.4	-36.00645637512207	5.618737876415253	0.0	2050.0	2046.0	2555.2	204.0	199.1	178.8	190.4	178087862.5
2017-08-10 12:48:26.900	0.0	0.0	0.0	0.25	3.0	23.0	44.7	-5.9	-94.9	98904.0	500.0	0.033016324043273926	-118.37291259765625	0.0	0.0	36.1	639.0	73569.8	873.8	-11.809408593177796	11.825512552261353	0.0	2062.4	2047.6	2554.0	207.6	197.6	179.8	188.5	178137975.7
2017-08-10 12:48:26.950	0.0	0.0	0.0	0.25	3.0	23.0	45.1	-2.1	-93.3	98905.8	500.0	0.03369806371629238	-117.9145881652832	0.0	0.0	309.0	570.8	74935.2	872.7	-11.236628544330596	20.543910408020018	0.0	2053.6	2054.8	2559.2	208.0	194.0	184.1	188.8	178188149.5
2017-08-10 12:48:27.000	0.0	0.0	0.0	0.25	3.0	23.0	44.5	-4.5	-95.7	98907.3	500.0	0.03735339604318142	-119.71643524169922	0.0	0.0	506.9	520.5	76293.5	871.4	-75.41380920410157	33.19818058013916	0.0	2052.4	2048.0	2561.6	208.2	196.1	182.8	188.7	178238262.4
2017-08-10 12:48:27.050	0.0	0.0	0.0	0.25	3.0	23.0	45.0	-1.4	-95.0	98902.0	500.0	0.03873210810124874	-120.21804504394531	0.0	0.0	437.6	456.9	77710.1	869.8	-102.44707870483398	51.705186462402345	0.0	2057.2	2046.4	2558.0	211.9	194.4	184.6	185.3	178288418.2
2017-08-10 12:48:27.100	0.0	0.0	0.0	0.25	3.0	23.0	44.9	-0.9	-94.9	98906.2	500.0	0.040254348143935206	-121.65818939208984	0.0	0.0	213.9	474.3	79144.5	864.9	-114.96217193603516	57.60687141418457	0.0	2052.0	2046.0	2559.6	213.9	196.7	185.7	184.4	178338479.2
2017-08-10 12:48:27.150	0.0	0.0	0.0	0.25	3.0	23.0	42.5	-1.5	-92.9	98899.1	500.0	0.041510222107172014	-122.92834930419922	0.0	0.0	-87.6	421.7	80460.1	858.7	-124.17893295288086	70.88279647827149	0.0	2059.6	2048.8	2565.2	211.6	201.8	180.8	190.6	178388613.4
2017-08-10 12:48:27.200	0.0	0.0	0.0	0.25	3.0	23.0	44.8	0.4	-95.8	98895.5	500.0	0.041723182424902916	-123.06329345703125	0.0	0.0	-315.0	294.7	81858.6	854.5	-142.28240814208985	74.35055465698242	0.0	2065.6	2056.8	2576.8	215.2	199.8	183.2	187.3	178438756.7
2017-08-10 12:48:27.250	0.0	0.0	0.0	0.25	3.0	23.0	46.2	2.6	-96.8	98901.4	500.0	0.042021816968917845	-123.13787536621093	0.0	0.0	-447.3	183.3	83242.1	850.1	-133.87537155151367	86.48806076049804	0.0	2061.6	2053.6	2577.2	215.0	199.2	183.2	189.0	178488939.9
2017-08-10 12:48:27.300	0.0	0.0	0.0	0.25	3.0	23.0	43.7	3.9	-94.9	98898.7	500.0	0.04242475032806396	-122.92941131591797	0.0	0.0	-512.3	131.3	84632.3	845.7	-146.1482696533203	96.40486068725586	0.0	2059.2	2050.4	2580.8	215.9	199.6	183.8	187.6	178538979.5
2017-08-10 12:48:27.350	0.0	0.0	0.0	0.25	3.0	23.0	44.1	0.1	-93.1	98899.2	500.0	0.04302696585655212	-124.90178298950195	0.0	0.0	-652.0	48.3	86081.4	841.5	-121.09216232299805	108.10276947021484	0.0	2064.0	2052.4	2578.4	217.5	198.8	184.7	186.6	178589211.5
2017-08-10 12:48:27.400	0.0	0.0	0.0	0.25	3.0	23.0	43.0	3.6	-92.4	98899.8	500.0	0.04508114270865917	-126.24020462036133	0.0	0.0	-786.5	34.8	87538.7	837.5	-113.21462554931641	130.14916915893554	0.0	2060.0	2050.4	2577.2	220.7	197.4	186.3	183.2	178639284.8
2017-08-10 12:48:27.450	0.0	0.0	0.0	0.25	3.0	23.0	44.4	4.4	-95.8	98902.0	500.0	0.04531185440719128	-127.65934753417969	0.0	0.0	-980.1	66.3	89019.9	832.1	-96.60239486694336	134.4511459350586	0.0	2061.6	2056.8	2571.2	218.1	201.0	184.4	186.2	178689495.4
2017-08-10 12:48:27.500	0.0	0.0	0.0	0.25	3.0	23.0	42.55555555555556	5.0	-94.33333333333333	98904.11111111111	500.0	0.04786584277947744	-127.16552056206598	0.0	0.0	-941.4444444444445	-8.222222222222221	90330.11111111111	827.7777777777778	-101.27468363444011	149.23249308268228	0.0	2054.6666666666665	2049.3333333333335	2573.3333333333335	216.77777777777777	200.22222222222223	183.77777777777777	189.66666666666666	178737032.8888889
2017-08-10 12:48:27.550	0.0	0.0	0.0	0.25	3.0	22.9	43.8	7.4	-95.0	98903.5	500.2	0.050196658819913864	-124.81765441894531	0.0	0.0	-834.7	-155.8	91635.6	823.7	-136.17033462524415	159.5339782714844	0.0	2062.4	2059.6	2581.2	218.2	199.6	183.0	189.3	178784658.3
2017-08-10 12:48:27.600	0.0	0.0	0.0	0.25	3.0	22.0	43.09090909090909	10.181818181818182	-92.54545454545455	98899.72727272728	500.1818181818182	0.05047360401261936	-125.38522546941584	0.0	0.0	-805.0909090909091	-234.0909090909091	93071.54545454546	821.2727272727273	-112.16434201327237	151.04458756880328	0.0	2056.7272727272725	2053.090909090909	2576.0	215.36363636363637	200.45454545454547	181.63636363636363	190.9090909090909	178837329.72727272
2017-08-10 12:48:27.650	0.0	0.0	0.0	0.25	3.0	22.0	42.1	10.3	-93.3	98901.4	500.0	0.04954628944396973	-127.01490631103516	0.0	0.0	-697.5	-334.6	94523.0	819.0	-105.24726333618165	155.8666015625	0.0	2070.0	2056.0	2583.6	216.7	199.8	181.3	188.9	178889944.1
2017-08-10 12:48:27.700	0.0	0.0	0.0	0.25	3.0	22.0	40.55555555555556	13.444444444444445	-94.33333333333333	98902.22222222222	500.0	0.049541893104712166	-129.46982150607639	0.0	0.0	-692.1111111111111	-396.77777777777777	95773.33333333333	816.1111111111111	-85.91744232177734	162.57146538628473	0.0	2061.3333333333335	2052.4444444444443	2576.0	214.88888888888889	200.44444444444446	180.11111111111111	191.55555555555554	178937570.7777778
2017-08-10 12:48:27.750	0.0	0.0	0.0	0.25	3.0	22.0	42.18181818181818	14.181818181818182	-94.18181818181819	98904.54545454546	500.54545454545456	0.050766748799519104	-128.62924749200994	0.0	0.0	-649.0909090909091	-371.8181818181818	97277.09090909091	813.3636363636364	-99.37814469770952	161.46235101873225	0.0	2063.2727272727275	2063.6363636363635	2577.090909090909	220.54545454545453	196.45454545454547	185.54545454545453	184.0909090909091	178987667.54545453
2017-08-10 12:48:27.800	0.0	0.0	0.0	0.25	3.0	22.0	42.0	15.777777777777779	-92.66666666666667	98903.66666666667	500.22222222222223	0.05149097823434406	-129.43289693196616	0.0	0.0	-732.1111111111111	-337.1111111111111	98709.33333333333	811.6666666666666	-92.93380398220486	180.43130832248264	0.0	2065.3333333333335	2054.6666666666665	2568.4444444444443	217.33333333333334	198.44444444444446	182.44444444444446	187.44444444444446	179037844.66666666
2017-08-10 12:48:27.850	0.0	0.0	0.0	0.25	3.0	22.0	38.18181818181818	16.90909090909091	-94.9090909090909	98902.18181818182	500.6363636363636	0.0535002127289772	-130.2621973211115	0.0	0.0	-657.3636363636364	-359.6363636363636	100108.45454545454	810.5454545454545	-91.01113544810902	195.38846796209162	0.0	2060.0	2052.0	2570.909090909091	217.45454545454547	197.36363636363637	182.0909090909091	187.0909090909091	179087926.27272728
2017-08-10 12:48:27.900	0.0	0.0	0.0	0.25	3.0	22.0	39.8	16.6	-96.4	98905.0	501.0	0.053905011340975764	-131.59662017822265	0.0	0.0	-609.9	-394.7	101597.0	808.2	-76.04714965820312	199.11195220947266	0.0	2060.8	2056.4	2569.6	216.1	197.9	181.4	189.7	179140609.3
2017-08-10 12:48:27.950	0.0	0.0	0.0	0.25	3.0	22.0	41.111111111111114	20.444444444444443	-95.55555555555556	98901.11111111111	500.77777777777777	0.056214536229769387	-130.5696275499132	0.0	0.0	-408.77777777777777	-546.4444444444445	102927.11111111111	804.3333333333334	-84.94412231445312	205.01042005750867	0.0	2055.1111111111113	2051.5555555555557	2572.4444444444443	218.11111111111111	195.55555555555554	183.66666666666666	189.55555555555554	179188228.55555555
2017-08-10 12:48:28.000	0.0	0.0	0.0	0.25	3.0	22.0	37.6	20.0	-96.4	98903.9	500.8	0.05726344957947731	-130.68429412841797	0.0	0.0	-377.1	-581.1	104183.7	800.0	-85.66356582641602	202.83423767089843	0.0	2056.0	2056.8	2571.6	214.5	202.5	178.8	193.8	179235857.8
2017-08-10 12:48:28.050	0.0	0.0	0.0	0.25	3.0	22.0	39.2	19.2	-94.0	98898.5	500.6	0.05766073800623417	-131.41127166748046	0.0	0.0	-354.1	-522.2	105593.1	797.8	-77.31561126708985	202.88838653564454	0.0	2060.4	2060.8	2581.2	219.2	196.7	185.1	187.2	179285979.6
2017-08-10 12:48:28.100	0.0	0.0	0.0	0.25	3.0	22.0	35.8	24.6	-91.4	98904.4	501.0	0.05825303569436073	-132.27793731689454	0.0	0.0	-412.0	-451.6	107029.9	794.6	-68.42831916809082	204.6041061401367	0.0	2062.8	2050.0	2579.2	218.8	198.7	183.1	188.2	179336208.8
2017-08-10 12:48:28.150	0.0	0.0	0.0	0.25	3.0	22.0	36.6	23.0	-92.6	98899.4	501.0	0.05930125825107098	-133.5644958496094	0.0	0.0	-425.5	-398.8	108450.8	790.2	-54.35237503051758	213.53860473632812	0.0	2062.4	2052.8	2576.4	219.1	198.8	184.1	189.2	179386230.1
2017-08-10 12:48:28.200	0.0	0.0	0.0	0.25	3.0	22.0	35.0	23.363636363636363	-93.72727272727273	98898.36363636363	501.0	0.05912368812344291	-134.29334744540128	0.0	0.0	-293.09090909090907	-404.54545454545456	109923.0	789.1818181818181	-54.320851759477094	218.45636957341975	0.0	2061.090909090909	2060.0	2584.7272727272725	216.45454545454547	198.45454545454547	182.0909090909091	191.27272727272728	179438922.63636363
2017-08-10 12:48:28.250	0.0	0.0	0.0	0.25	3.0	22.0	33.44444444444444	24.555555555555557	-93.22222222222223	98904.55555555556	500.55555555555554	0.0587067384686735	-134.12947591145834	0.0	0.0	-191.88888888888889	-516.3333333333334	111275.22222222222	787.3333333333334	-66.22832785712347	226.69678412543402	0.0	2066.6666666666665	2057.777777777778	2573.3333333333335	217.22222222222223	198.0	181.22222222222223	191.77777777777777	179489009.7777778
2017-08-10 12:48:28.300	0.0	0.0	0.0	0.25	3.0	22.0	35.0	27.8	-93.0	98896.4	500.8	0.05956202410161495	-135.38858032226562	0.0	0.0	-164.2	-555.4	112639.5	782.8	-52.30686492919922	227.51605224609375	0.0	2059.2	2055.2	2570.4	219.7	197.1	184.6	190.2	179536681.6
2017-08-10 12:48:28.350	0.0	0.0	0.0	0.25	3.0	22.0	31.6	26.4	-95.2	98899.4	501.0	0.06293295957148075	-135.29024810791014	0.0	0.0	-72.1	-523.0	113997.0	780.8	-43.23925895690918	230.47077026367188	0.0	2062.4	2057.6	2578.0	215.6	200.1	181.8	193.2	179586803.7
2017-08-10 12:48:28.400	0.0	0.0	0.0	0.25	3.0	22.0	30.0	29.2	-93.2	98902.7	501.0	0.0641598679125309	-136.33269500732422	0.0	0.0	-88.9	-468.0	115385.6	780.5	-30.374830055236817	235.96246032714845	0.0	2060.0	2057.2	2570.0	217.8	198.1	182.8	189.8	179636956.1
2017-08-10 12:48:28.450	0.0	0.0	0.0	0.25	3.0	22.0	31.6	31.2	-92.4	98897.3	500.8	0.06532071381807328	-136.71058959960936	0.0	0.0	-132.3	-464.7	116780.3	775.7	-12.56919059753418	246.11859741210938	0.0	2050.8	2060.0	2562.4	217.8	199.9	182.2	192.2	179687124.1
2017-08-10 12:48:28.500	0.0	0.0	0.0	0.25	3.0	22.0	29.8	29.0	-93.4	98900.7	501.0	0.06581869572401047	-136.46343536376952	0.0	0.0	-233.9	-483.0	118252.9	778.4	5.912605494260788	244.60588684082032	0.0	2048.0	2058.0	2571.6	222.6	192.8	186.0	184.9	179737148.5
2017-08-10 12:48:28.550	0.0	0.0	0.0	0.25	3.0	22.0	28.2	31.4	-94.2	98900.4	501.0	0.06787958666682244	-136.01364288330078	0.0	0.0	-189.5	-468.7	119742.3	777.5	23.5628098487854	255.5453323364258	0.0	2052.8	2053.6	2566.4	217.7	195.7	183.8	189.7	179787319.5
2017-08-10 12:48:28.600	0.0	0.0	0.0	0.25	3.0	22.0	26.8	32.0	-92.0	98899.1	501.0	0.06769985854625701	-135.34322204589844	0.0	0.0	39.1	-507.8	121108.2	777.1	4.798525619506836	253.29385681152343	0.0	2061.6	2063.2	2569.2	216.0	195.4	182.2	192.4	179837429.4
2017-08-10 12:48:28.650	0.0	0.0	0.0	0.25	3.0	22.0	28.6	36.2	-90.6	98904.8	501.0	0.06778945922851562	-135.02289581298828	0.0	0.0	152.8	-525.7	122507.8	775.5	2.0523226082324983	248.86343383789062	0.0	2058.8	2059.6	2570.8	216.6	196.3	182.8	190.8	179887621.6
2017-08-10 12:48:28.700	0.0	0.0	0.0	0.25	3.0	22.0	26.0	32.4	-92.0	98901.2	501.0	0.06980111673474312	-135.1029846191406	0.0	0.0	222.8	-488.5	123892.0	772.7	29.66903610229492	249.09990692138672	0.0	2052.4	2054.8	2570.0	215.9	196.9	182.7	193.1	179937719.2
2017-08-10 12:48:28.750	0.0	0.0	0.0	0.25	3.0	22.0	23.0	37.8	-92.6	98903.3	501.0	0.06934075802564621	-136.39425048828124	0.0	0.0	320.4	-517.4	125305.8	769.9	27.383646965026855	248.4164291381836	0.0	2061.2	2058.0	2576.4	217.6	195.8	184.1	192.2	179987932.8
2017-08-10 12:48:28.800	0.0	0.0	0.0	0.25	3.0	22.0	25.4	37.0	-90.6	98901.8	501.0	0.07227266654372215	-135.57250213623047	0.0	0.0	419.6	-508.9	126650.8	769.0	32.65856990814209	253.4065170288086	0.0	2059.2	2056.4	2572.4	215.0	196.8	183.0	193.9	180037935.9
2017-08-10 12:48:28.850	0.0	0.0	0.0	0.25	3.0	22.0	22.4	37.2	-92.8	98902.1	501.0	0.07341920658946037	-135.94125061035157	0.0	0.0	436.4	-453.0	128155.5	767.0	31.579356956481934	250.76455535888672	0.0	2056.4	2057.2	2578.4	219.9	194.2	186.1	188.9	180088110.0
2017-08-10 12:48:28.900	0.0	0.0	0.0	0.25	3.0	22.0	19.6	39.6	-90.0	98901.2	501.0	0.07505666092038155	-136.0208709716797	0.0	0.0	386.5	-466.8	129538.7	764.3	45.628936004638675	261.24656982421874	0.0	2058.8	2058.0	2574.0	216.9	196.6	183.3	193.5	180138219.8
2017-08-10 12:48:28.950	0.0	0.0	0.0	0.25	3.0	22.0	21.4	39.4	-93.0	98898.8	501.0	0.07533589750528336	-136.3691436767578	0.0	0.0	510.3	-454.6	130894.4	762.8	35.82847290039062	258.0998077392578	0.0	2060.8	2057.2	2580.0	213.7	198.5	181.9	196.2	180188427.1
2017-08-10 12:48:29.000	0.0	0.0	0.0	0.25	3.0	22.0	16.6	38.6	-92.6	98899.4	501.0	0.07567901760339737	-136.4591049194336	0.0	0.0	557.6	-424.0	132233.8	759.9	28.52308044433594	253.04635162353514	0.0	2054.4	2057.6	2571.2	216.1	197.5	184.5	194.1	180238488.3
2017-08-10 12:48:29.050	0.0	0.0	0.0	0.25	3.0	22.0	15.8	42.2	-94.2	98902.4	501.0	0.07672293409705162	-135.48828582763673	0.0	0.0	420.4	-381.5	133673.3	754.9	26.345877647399902	252.9256622314453	0.0	2047.2	2059.2	2575.2	220.6	197.7	185.6	191.9	180288640.8
2017-08-10 12:48:29.100	0.0	0.0	0.0	0.25	3.0	22.0	15.2	40.8	-92.0	98898.8	501.0	0.07814044654369354	-135.87405242919922	0.0	0.0	179.7	-281.3	135135.5	755.0	56.01464691162109	253.59219665527343	0.0	2053.6	2052.4	2576.8	220.3	196.6	186.6	189.1	180338805.8
2017-08-10 12:48:29.150	0.0	0.0	0.0	0.25	3.0	22.0	17.6	39.6	-92.8	98900.9	501.0	0.08083092644810677	-136.27823181152343	0.0	0.0	263.0	-287.7	136539.8	750.8	74.16390457153321	268.6222808837891	0.0	2054.4	2052.4	2575.2	217.6	197.1	185.8	195.5	180388891.1
2017-08-10 12:48:29.200	0.0	0.0	0.0	0.25	3.0	22.0	15.2	41.6	-93.6	98897.3	501.0	0.08016833290457726	-134.87162017822266	0.0	0.0	385.8	-376.9	137924.1	752.9	59.75561714172363	250.81823272705077	0.0	2062.8	2058.8	2582.8	216.2	197.4	182.1	194.8	180439052.7
2017-08-10 12:48:29.250	0.0	0.0	0.0	0.25	3.0	22.0	11.8	44.6	-91.0	98897.0	501.0	0.08192568644881248	-135.76269989013673	0.0	0.0	336.7	-441.5	139297.7	753.4	71.84923439025879	240.75162353515626	0.0	2051.6	2055.2	2572.0	217.2	196.0	183.4	193.1	180489184.0
2017-08-10 12:48:29.300	0.0	0.0	0.0	0.125	5.0	22.0	12.0	42.0	-92.4	98905.3	501.0	0.08105503469705581	-136.9822784423828	0.0	0.0	364.5	-427.6	140694.3	752.2	99.8453582763672	237.53374633789062	0.0	2051.6	2058.4	2566.4	221.9	192.1	190.6	185.6	180539367.3
2017-08-10 12:48:29.350	0.0	0.0	0.0	0.25	8.0	22.0	12.0	45.6	-94.8	98895.5	501.0	0.08380205631256103	-135.50928497314453	0.0	0.0	311.0	-425.1	141956.3	750.7	116.86161651611329	246.33583221435546	0.0	2054.0	2049.2	2573.2	232.3	185.4	198.6	174.7	180589406.9
2017-08-10 12:48:29.400	0.0	0.0	0.0	0.25	8.0	22.0	10.0	44.4	-90.8	98898.5	501.0	0.08684784471988678	-134.93162231445314	0.0	0.0	236.3	-814.7	142931.4	752.1	129.75548095703124	255.05674743652344	0.0	2060.0	2053.2	2569.2	229.7	185.9	192.8	179.7	180639672.3
2017-08-10 12:48:29.450	0.0	0.0	0.0	0.25	8.0	22.0	10.6	43.4	-92.6	98895.8	501.0	0.08710887581110001	-134.87041168212892	0.0	0.0	378.6	-1267.3	143705.1	749.6	137.03491897583007	246.67345733642577	0.0	2053.2	2059.2	2570.0	228.0	186.7	193.4	182.8	180689660.0
2017-08-10 12:48:29.500	0.0	0.0	0.0	0.25	8.0	22.0	12.4	45.6	-91.2	98894.9	501.0	0.08724307045340537	-134.95794372558595	0.0	0.0	599.6	-1533.7	144367.0	746.7	144.54454193115234	240.70686798095704	0.0	2051.6	2058.0	2575.2	225.7	188.7	193.0	185.7	180739828.0
2017-08-10 12:48:29.550	0.0	0.0	0.0	0.25	8.0	22.0	10.6	47.4	-91.0	98900.6	501.0	0.08700063526630401	-137.32386322021483	0.0	0.0	959.8	-1773.3	144858.0	744.0	147.88899841308594	229.19982147216797	0.0	2054.8	2056.4	2578.4	222.4	190.0	192.9	189.4	180789944.0
2017-08-10 12:48:29.600	0.0	0.0	0.0	0.25	3.0	22.0	11.4	47.8	-92.6	98898.8	501.0	0.08665694519877434	-137.6850387573242	0.0	0.0	1264.3	-1823.2	145404.9	739.7	132.63389892578124	208.33722839355468	0.0	2058.4	2056.8	2588.8	195.7	219.2	165.2	218.7	180840117.8
2017-08-10 12:48:29.650	0.0	0.0	0.0	0.25	3.0	22.0	8.666666666666666	46.666666666666664	-90.66666666666667	98899.33333333333	501.0	0.08586297184228897	-138.63788350423178	0.0	0.0	1403.111111111111	-1911.111111111111	146419.88888888888	742.0	137.55877516004773	191.1391364203559	0.0	2057.3333333333335	2059.1111111111113	2580.0	208.55555555555554	202.11111111111111	177.66666666666666	204.88888888888889	180887684.66666666
2017-08-10 12:48:29.700	0.0	0.0	0.0	0.25	3.0	22.0	8.181818181818182	48.36363636363637	-90.54545454545455	98901.90909090909	501.0	0.08552376722747629	-138.85290388627485	0.0	0.0	1586.3636363636363	-1734.7272727272727	147605.72727272726	741.3636363636364	127.07218100807883	157.44662753018466	0.0	2053.090909090909	2057.090909090909	2573.4545454545455	209.54545454545453	200.54545454545453	181.27272727272728	202.1818181818182	180937857.36363637
2017-08-10 12:48:29.750	0.0	0.0	0.0	0.25	3.0	22.0	6.666666666666667	48.22222222222222	-93.77777777777777	98898.33333333333	501.0	0.08508042494455974	-139.21128845214844	0.0	0.0	1652.4444444444443	-1401.6666666666667	148880.0	741.5555555555555	133.6703338623047	134.55758158365884	0.0	2059.1111111111113	2057.777777777778	2582.222222222222	209.77777777777777	198.22222222222223	183.88888888888889	200.0	180987985.66666666
2017-08-10 12:48:29.800	0.0	0.0	0.0	0.25	3.0	22.0	6.8	48.8	-92.8	98895.2	501.0	0.08455772474408149	-139.98278198242187	0.0	0.0	1750.9	-1087.8	150120.0	738.9	120.24705123901367	120.98747482299805	0.0	2058.4	2060.0	2584.8	212.1	198.1	185.9	199.2	181035576.9
2017-08-10 12:48:29.850	0.0	0.0	0.0	0.25	3.0	22.0	2.7	48.5	-92.3	98902.4	501.0	0.08426059484481811	-141.43482360839843	0.0	0.0	1448.2	-745.4	151415.8	743.1	89.00087356567383	109.61370849609375	0.0	2052.8	2057.2	2566.8	211.0	200.4	181.1	195.6	181085726.5
2017-08-10 12:48:29.900	0.0	0.0	0.0	0.25	3.0	22.0	1.5	47.5	-91.7	98902.3	501.0	0.0844265878200531	-141.8435073852539	0.0	0.0	1036.8	-437.7	152793.8	745.1	112.69350662231446	106.4707878112793	0.0	2037.6	2049.2	2563.2	213.4	196.6	184.9	191.7	181135900.4
2017-08-10 12:48:29.950	0.0	0.0	0.0	0.25	3.0	22.0	-0.5454545454545454	47.09090909090909	-90.9090909090909	98899.72727272728	501.0	0.08369001813910225	-139.20106645063922	0.0	0.0	850.9090909090909	-167.9090909090909	154221.27272727274	743.0909090909091	96.82942199707031	106.60969404740767	0.0	2064.7272727272725	2052.3636363636365	2573.818181818182	211.9090909090909	199.27272727272728	184.9090909090909	194.63636363636363	181188484.45454547
2017-08-10 12:48:30.000	0.0	0.0	0.0	0.25	3.0	22.0	-1.8888888888888888	49.666666666666664	-91.88888888888889	98900.0	501.0	0.08277520702944861	-139.53757561577692	0.0	0.0	759.5555555555555	-1.4444444444444444	155531.66666666666	741.7777777777778	75.65561209784613	99.00630018446181	0.0	2057.777777777778	2052.8888888888887	2578.222222222222	212.66666666666666	200.0	184.0	195.11111111111111	181238599.55555555
2017-08-10 12:48:30.050	0.0	0.0	0.0	0.25	3.0	22.0	-5.5	47.1	-95.9	98897.5	501.0	0.08286685273051261	-139.25720977783203	0.0	0.0	534.8	156.0	156855.5	742.5	88.78081817626953	95.20669326782226	0.0	2055.2	2051.6	2573.6	215.2	198.3	186.2	190.4	181286352.2
2017-08-10 12:48:30.100	0.0	0.0	0.0	0.25	3.0	22.0	-6.1	48.9	-93.3	98902.1	501.0	0.08289656192064285	-139.06972045898436	0.0	0.0	320.4	292.7	158236.6	741.5	125.0476448059082	93.5471321105957	0.0	2051.2	2049.2	2568.0	213.7	199.6	185.4	192.3	181336352.0
2017-08-10 12:48:30.150	0.0	0.0	0.0	0.125	3.5	22.0	-8.4	48.4	-92.8	98907.6	501.0	0.08441401049494743	-139.53005828857422	0.0	0.0	260.4	405.7	159633.9	738.6	126.43262023925782	100.73428039550781	0.0	2056.8	2048.4	2575.2	217.9	196.5	190.4	189.8	181386501.6
2017-08-10 12:48:30.200	0.0	0.0	0.0	0.0	4.0	22.0	-9.6	48.0	-93.2	98904.5	501.0	0.08526118025183678	-140.27452697753907	0.0	0.0	158.9	412.7	160987.7	735.5	133.71731033325196	106.13711471557617	0.0	2056.4	2046.0	2573.2	228.7	196.9	195.6	175.6	181436617.5
2017-08-10 12:48:30.250	0.0	0.0	0.0	0.0	4.0	22.0	-8.8	48.2	-95.0	98898.8	501.0	0.0884256511926651	-141.45541534423828	0.0	0.0	172.6	-19.2	162079.6	735.4	180.1441848754883	119.4089569091797	0.0	2054.4	2052.8	2568.0	229.5	193.9	193.4	178.3	181486803.7
2017-08-10 12:48:30.300	0.0	0.0	0.0	0.0	4.0	22.0	-10.0	49.4	-93.0	98902.7	501.0	0.08853845745325088	-141.26316833496094	0.0	0.0	708.0	-611.4	163035.9	732.8	197.43911743164062	114.10095291137695	0.0	2054.8	2052.4	2579.2	229.1	192.1	192.4	183.1	181536876.9
2017-08-10 12:48:30.350	-0.25	0.0	0.0	0.0	4.0	22.0	-6.7	49.7	-92.5	98895.5	501.0	0.08969585001468658	-141.16107788085938	0.0	0.0	1536.1	-1110.6	163770.4	734.5	200.45586853027345	111.73307647705079	0.0	2048.8	2048.0	2572.8	222.9	190.8	193.8	186.5	181587023.5
2017-08-10 12:48:30.400	-0.25	0.0	0.0	0.0	4.0	22.0	-7.7	53.7	-90.7	98899.1	501.0	0.08970973342657089	-140.45670623779296	0.0	0.0	2504.1	-1351.8	164416.8	733.7	186.76101684570312	106.15095520019531	0.0	2052.4	2050.0	2574.0	221.1	189.4	195.4	189.2	181637130.2
2017-08-10 12:48:30.450	-0.25	0.0	0.0	0.0	4.0	22.0	-7.9	56.3	-91.1	98898.2	501.0	0.0900004304945469	-140.44349365234376	0.0	0.0	3262.0	-1511.7	164973.3	733.6	162.83658447265626	96.61848602294921	0.0	2056.4	2055.2	2583.6	222.1	187.5	197.9	187.7	181687359.2
2017-08-10 12:48:30.500	-0.25	0.0	0.0	0.0	4.0	22.0	-7.7	56.9	-90.3	98903.6	501.0	0.09052720442414283	-140.44933319091797	0.0	0.0	3595.1	-1522.0	165444.5	734.1	135.79597015380858	88.99423065185547	0.0	2055.2	2050.8	2581.6	218.3	192.0	193.8	190.5	181737484.4
2017-08-10 12:48:30.550	-0.25	0.0	0.0	0.0	4.0	22.0	-8.3	58.3	-88.9	98898.8	501.0	0.09127115905284881	-140.07003631591797	0.0	0.0	3619.5	-1553.7	165805.1	733.1	108.13945083618164	76.9857307434082	0.0	2051.6	2052.8	2577.2	221.0	190.6	194.2	189.7	181787566.7
2017-08-10 12:48:30.600	-0.25	0.0	0.0	0.0	4.0	21.3	-8.0	57.8	-90.8	98897.0	501.0	0.09157087281346321	-139.86717834472657	0.0	0.0	3502.6	-1593.5	166062.8	729.0	76.49960975646972	60.93399238586426	0.0	2050.4	2049.6	2575.6	217.1	196.2	191.9	195.6	181837737.5
2017-08-10 12:48:30.650	-0.25	0.0	0.0	0.0	4.0	21.0	-8.8	56.0	-89.6	98900.6	501.0	0.0896583542227745	-138.29878692626954	0.0	0.0	3268.6	-1457.1	166323.2	737.2	20.136283731460573	51.196977615356445	0.0	2054.4	2045.6	2582.4	216.9	190.8	192.9	188.9	181887914.6
2017-08-10 12:48:30.700	-0.25	0.0	0.0	0.0	4.0	21.0	-10.6	53.6	-90.0	98898.2	501.0	0.09003311097621917	-137.79900054931642	0.0	0.0	2638.5	-1224.8	166653.4	738.1	-6.644651246070862	46.28751182556152	0.0	2054.8	2045.6	2570.0	221.0	191.9	193.5	183.4	181938015.3
2017-08-10 12:48:30.750	-0.25	0.0	0.0	0.0	4.0	21.0	-10.2	52.2	-92.8	98899.4	501.0	0.09027303382754326	-138.5361755371094	0.0	0.0	1821.0	-1069.3	166902.8	738.4	10.293012714385986	40.51729507446289	0.0	2055.6	2050.8	2567.2	223.0	193.7	191.3	182.3	181988070.2
2017-08-10 12:48:30.800	-0.25	0.0	0.0	0.0	4.0	21.0	-9.9	49.9	-91.9	98903.9	501.0	0.08972182497382164	-138.14666900634765	0.0	0.0	1229.9	-872.5	167136.2	739.7	7.527655553817749	36.02589302062988	0.0	2060.8	2052.8	2570.8	221.8	195.1	191.5	180.8	182038241.0
2017-08-10 12:48:30.850	-0.25	0.0	0.0	0.0	4.0	21.0	-10.5	51.1	-90.7	98899.1	501.0	0.09057402536273003	-138.06294708251954	0.0	0.0	888.5	-680.5	167276.8	740.1	14.042058753967286	38.93120002746582	0.0	2056.4	2044.0	2566.8	219.4	196.1	190.9	183.2	182088418.0
2017-08-10 12:48:30.900	-0.25	0.0	0.0	0.0	4.0	21.0	-10.0	51.0	-92.6	98905.1	501.0	0.09014679417014122	-137.8902587890625	0.0	0.0	774.8	-564.9	167440.9	739.4	8.758557224273682	37.49043579101563	0.0	2058.4	2046.0	2576.0	220.8	195.5	192.5	182.1	182138527.9
2017-08-10 12:48:30.950	-0.25	0.0	0.0	0.0	4.0	21.0	-13.2	51.4	-93.6	98902.7	501.0	0.09111911952495574	-137.63677215576172	0.0	0.0	700.3	-534.2	167547.1	738.6	14.921693038940429	33.69993305206299	0.0	2064.8	2048.8	2572.4	221.5	194.9	192.8	182.8	182188619.3
2017-08-10 12:48:31.000	-0.25	0.0	0.0	0.0	4.0	21.0	-13.1	51.5	-92.1	98888.0	501.0	0.09179961234331131	-138.41819458007814	0.0	0.0	629.8	-477.8	167645.0	738.4	16.476807498931883	27.776566314697266	0.0	2066.8	2044.4	2579.6	219.1	198.8	190.2	184.0	182238814.8
2017-08-10 12:48:31.050	-0.25	0.0	0.0	0.0	4.0	21.0	-13.5	50.7	-92.3	98895.5	501.0	0.091944520175457	-138.14544830322265	0.0	0.0	680.8	-374.5	167740.1	741.5	7.093614816665649	22.355339813232423	0.0	2060.8	2051.6	2574.8	219.4	193.9	192.7	181.8	182288930.9
2017-08-10 12:48:31.100	-0.25	0.0	0.0	0.0	4.0	21.0	-9.5	49.7	-92.5	98896.4	501.0	0.09066813215613365	-138.248974609375	0.0	0.0	630.6	-338.1	167813.7	740.4	-14.47018346786499	25.810470962524413	0.0	2061.6	2054.0	2576.0	220.1	195.7	192.5	182.2	182339101.7
2017-08-10 12:48:31.150	-0.25	0.0	0.0	0.0	4.0	21.0	-11.222222222222221	49.44444444444444	-91.44444444444444	98898.66666666667	501.0	0.09085779223177168	-138.7474653455946	0.0	0.0	464.1111111111111	-337.22222222222223	167881.55555555556	738.5555555555555	-7.623526043362087	19.468586073981392	0.0	2056.8888888888887	2043.5555555555557	2568.4444444444443	221.33333333333334	197.0	191.55555555555554	182.77777777777777	182386657.0
2017-08-10 12:48:31.200	-0.25	0.0	0.0	0.0	4.0	21.0	-11.6	52.4	-93.2	98900.3	501.0	0.09090891033411026	-138.3295684814453	0.0	0.0	339.8	-392.3	167970.8	737.7	-5.147132039070129	19.519210624694825	0.0	2057.6	2047.2	2572.0	223.5	195.8	193.8	180.5	182434325.7
2017-08-10 12:48:31.250	-0.25	0.0	0.0	0.0	4.0	21.0	-11.727272727272727	51.36363636363637	-91.9090909090909	98895.90909090909	501.0	0.09146548875353554	-138.13937932794744	0.0	0.0	210.1818181818182	-254.45454545454547	168035.0909090909	737.7272727272727	5.459967195987701	13.63893426548351	0.0	2058.5454545454545	2045.090909090909	2576.0	220.63636363636363	199.0	191.36363636363637	181.63636363636363	182486960.1818182
2017-08-10 12:48:31.300	-0.25	0.0	0.0	0.0	4.0	21.0	-11.8	52.0	-93.6	98897.0	501.0	0.09091848060488701	-139.34165649414064	0.0	0.0	277.9	-236.1	168075.2	736.2	13.718109607696533	5.051064205169678	0.0	2062.4	2045.6	2582.8	221.5	197.9	192.1	183.2	182539638.8
2017-08-10 12:48:31.350	-0.25	0.0	0.0	0.0	4.0	21.0	-13.88888888888889	53.22222222222222	-93.44444444444444	98900.33333333333	501.0	0.09251560022433598	-139.16232638888889	0.0	0.0	262.3333333333333	-299.77777777777777	168047.88888888888	733.5555555555555	18.554238107469345	5.258033828602897	0.0	2060.4444444444443	2051.1111111111113	2577.777777777778	223.33333333333334	198.77777777777777	191.33333333333334	183.66666666666666	182587195.0
2017-08-10 12:48:31.400	-0.25	0.0	0.0	0.0	4.0	21.0	-12.8	52.4	-90.8	98900.6	501.0	0.09160270914435387	-139.6007308959961	0.0	0.0	352.6	-426.8	168130.1	734.4	17.04434700012207	2.084678018093109	0.0	2063.2	2045.2	2575.2	223.7	195.5	193.0	182.3	182634844.5
2017-08-10 12:48:31.450	-0.25	0.0	0.0	0.0	4.0	21.0	-9.8	49.4	-91.8	98903.0	501.0	0.09070073887705803	-139.41207733154297	0.0	0.0	482.2	-386.8	168165.4	737.1	0.2957712173461914	-5.800486505031586	0.0	2062.0	2048.8	2577.6	220.9	195.8	193.2	181.4	182684990.8
2017-08-10 12:48:31.500	-0.25	0.0	0.0	0.0	4.0	21.0	-12.090909090909092	52.81818181818182	-90.45454545454545	98897.0	501.0	0.09064588966694745	-139.28273287686434	0.0	0.0	566.3636363636364	-273.8181818181818	168195.27272727274	737.5454545454545	-1.0772569504651157	-9.374816005880183	0.0	2056.3636363636365	2050.5454545454545	2571.2727272727275	220.0	196.0	192.27272727272728	182.72727272727272	182737609.45454547
2017-08-10 12:48:31.550	-0.25	0.0	0.0	0.0	4.0	21.0	-13.0	51.666666666666664	-91.88888888888889	98901.0	501.0	0.09046607381767696	-138.7854292127821	0.0	0.0	573.6666666666666	-197.33333333333334	168171.88888888888	738.0	-7.734299553765191	-12.33360567357805	0.0	2060.0	2045.3333333333333	2567.1111111111113	219.0	198.44444444444446	190.33333333333334	183.33333333333334	182787773.55555555
2017-08-10 12:48:31.600	-0.25	0.0	0.0	0.0	4.0	21.0	-10.545454545454545	50.90909090909091	-91.0909090909091	98904.63636363637	501.0	0.09082541343840686	-138.77932739257812	0.0	0.0	463.27272727272725	-188.27272727272728	168207.45454545456	737.9090909090909	-4.717283595692027	-22.73441392725164	0.0	2057.4545454545455	2040.0	2571.2727272727275	223.0	195.54545454545453	191.8181818181818	181.1818181818182	182837851.1818182
2017-08-10 12:48:31.650	-0.25	0.0	0.0	0.0	3.3	21.0	-11.6	52.0	-92.0	98896.4	501.0	0.09043242186307907	-139.24364166259767	0.0	0.0	372.4	-121.9	168214.5	738.7	-5.321789407730103	-18.852425384521485	0.0	2060.8	2049.2	2574.4	218.3	196.9	194.1	181.5	182890578.7
2017-08-10 12:48:31.700	-0.25	0.0	0.0	0.0	3.0	21.0	-14.1	48.5	-92.5	98898.5	501.0	0.09077343419194221	-138.97963256835936	0.0	0.0	159.1	-37.3	168292.5	739.1	-1.360056146979332	-15.253980731964111	0.0	2064.8	2040.0	2581.2	216.7	200.4	198.7	174.8	182940642.8
2017-08-10 12:48:31.750	-0.25	0.0	0.0	0.0	3.0	21.0	-11.666666666666666	49.44444444444444	-94.11111111111111	98898.33333333333	501.0	0.09127765893936157	-138.01934814453125	0.0	0.0	-80.11111111111111	-642.6666666666666	168287.55555555556	738.8888888888889	-12.65356312857734	-6.925097227096558	0.0	2062.222222222222	2036.0	2582.222222222222	217.33333333333334	202.0	195.11111111111111	177.0	182988352.1111111
2017-08-10 12:48:31.800	-0.25	0.0	0.0	0.0	3.0	21.0	-8.909090909090908	49.09090909090909	-92.9090909090909	98896.63636363637	501.0	0.0942970642989332	-139.67517644708806	0.0	0.0	-437.54545454545456	-1940.090909090909	168320.54545454544	738.3636363636364	11.262116518887607	-11.383784597570246	0.0	2072.3636363636365	2045.4545454545455	2577.4545454545455	221.1818181818182	199.0	194.63636363636363	178.1818181818182	183038413.0
2017-08-10 12:48:31.850	-0.25	0.0	0.0	0.0	3.0	21.0	-2.2222222222222223	50.44444444444444	-91.11111111111111	98892.0	501.0	0.09642801433801651	-139.81517537434897	0.0	0.0	-549.8888888888889	-3507.0	168289.11111111112	736.3333333333334	13.444174236721462	-32.32766596476237	0.0	2067.5555555555557	2041.3333333333333	2579.5555555555557	220.44444444444446	202.22222222222223	190.77777777777777	183.33333333333334	183088575.1111111
2017-08-10 12:48:31.900	-0.25	0.0	0.0	0.0	3.0	21.0	0.2	47.4	-94.2	98901.2	501.0	0.09788748025894164	-139.93022613525392	0.0	0.0	-661.9	-4869.6	168309.6	738.9	33.95365886688232	-48.24585456848145	0.0	2062.0	2047.6	2573.2	222.2	198.3	192.8	180.8	183136226.9
2017-08-10 12:48:31.950	-0.25	0.0	0.0	0.0	3.0	21.0	3.2	48.0	-94.0	98900.0	501.0	0.09815556183457375	-140.08585510253906	0.0	0.0	-610.9	-6148.4	168269.3	739.5	38.96903076171875	-85.70773963928222	0.0	2060.0	2049.6	2568.4	220.6	198.9	191.5	184.6	183186388.6
2017-08-10 12:48:32.000	-0.25	0.0	0.0	0.0	3.0	21.0	6.6	49.8	-93.4	98899.7	501.0	0.09729218408465386	-139.9163803100586	0.0	0.0	-610.7	-7148.4	168261.5	740.8	39.15763931274414	-143.38159255981446	0.0	2047.2	2044.8	2570.4	222.1	199.5	191.9	182.7	183236428.4
2017-08-10 12:48:32.050	-0.25	0.0	0.0	0.0	3.0	21.0	8.2	48.6	-91.4	98897.6	501.0	0.09656107649207116	-139.4905014038086	0.0	0.0	-623.0	-7902.9	168198.3	743.2	59.16971321105957	-189.3379653930664	0.0	2050.8	2039.2	2568.0	217.7	201.7	189.6	186.1	183286596.2
2017-08-10 12:48:32.100	-0.25	0.0	0.0	0.0	3.0	21.0	9.4	47.8	-90.6	98899.1	501.0	0.09465924501419068	-138.87928009033203	0.0	0.0	-460.7	-8480.4	168139.5	747.1	46.220693588256836	-253.96203155517577	0.0	2062.4	2040.4	2573.6	219.9	197.5	193.2	182.0	183336745.7
2017-08-10 12:48:32.150	-0.25	0.0	0.0	0.0	3.0	21.0	8.2	50.2	-93.0	98903.0	501.0	0.09284366518259049	-139.59739837646484	0.0	0.0	-418.2	-8745.4	168133.5	751.6	51.730635452270505	-327.3683776855469	0.0	2059.2	2032.8	2573.2	217.7	199.7	191.6	180.9	183386870.9
2017-08-10 12:48:32.200	-0.25	0.0	0.0	0.0	3.0	21.0	9.88888888888889	47.0	-92.33333333333333	98906.0	501.0	0.0912349025408427	-140.52142503526477	0.0	0.0	-387.3333333333333	-8924.222222222223	168110.33333333334	752.6666666666666	56.573475731743706	-381.8929036458333	0.0	2057.3333333333335	2037.3333333333333	2572.4444444444443	218.22222222222223	199.88888888888889	193.44444444444446	180.88888888888889	183434454.55555555
2017-08-10 12:48:32.250	-0.25	0.0	0.0	0.0	3.0	21.0	12.636363636363637	49.90909090909091	-90.63636363636364	98900.54545454546	501.0	0.09100341187282042	-140.89436062899503	0.0	0.0	-358.90909090909093	-9005.636363636364	168113.27272727274	750.6363636363636	68.97603780573064	-454.48440829190343	0.0	2064.0	2030.909090909091	2577.090909090909	218.72727272727272	201.45454545454547	195.36363636363637	181.72727272727272	183484621.45454547
2017-08-10 12:48:32.300	-0.25	0.0	0.0	0.0	3.0	21.0	12.8	49.6	-90.4	98896.7	501.0	0.09185914695262909	-141.07947692871093	0.0	0.0	-224.5	-9068.4	168065.1	750.1	65.80399475097656	-518.9044738769531	0.0	2052.0	2027.6	2572.8	217.2	202.1	196.0	183.7	183537282.9
2017-08-10 12:48:32.350	-0.25	0.0	0.0	0.0	3.0	21.0	12.6	49.8	-91.8	98900.3	501.0	0.09082656875252723	-140.77481536865236	0.0	0.0	-152.2	-9061.1	168074.0	748.5	38.8229175567627	-589.34140625	0.0	2052.0	2025.6	2580.4	219.8	202.6	198.0	180.4	183587371.3
2017-08-10 12:48:32.400	-0.25	0.0	0.0	0.0	3.0	21.0	12.6	51.4	-89.8	98893.4	501.0	0.0908698245882988	-140.3208221435547	0.0	0.0	-224.0	-8948.4	168005.4	748.6	46.97178611755371	-643.0661376953125	0.0	2056.8	2013.2	2586.8	214.4	207.3	193.7	185.1	183637514.7
2017-08-10 12:48:32.450	-0.25	0.0	0.0	0.0	3.0	21.0	16.2	48.6	-88.2	98896.4	501.0	0.08958321660757065	-140.91678009033203	0.0	0.0	-178.9	-8999.9	167992.9	751.3	48.88828887939453	-712.342724609375	0.0	2061.6	2018.0	2578.0	216.7	202.5	196.7	180.7	183687646.1
2017-08-10 12:48:32.500	-0.25	0.0	0.0	0.0	3.0	21.0	16.4	48.4	-90.8	98901.8	501.0	0.08263341188430787	-143.42049865722657	0.0	0.0	-87.8	-8831.6	167967.1	754.6	49.15417594909668	-793.0991333007812	0.0	2060.4	2016.4	2575.6	213.0	204.1	196.3	179.9	183737823.1
2017-08-10 12:48:32.550	-0.25	0.0	0.0	0.0	3.0	21.0	16.2	48.6	-90.6	98900.0	501.0	0.08291623294353485	-144.8038803100586	0.0	0.0	55.6	-8703.3	167937.2	753.3	66.8223819732666	-841.8736999511718	0.0	2061.6	2015.6	2568.0	213.9	201.9	199.6	180.9	183787914.7
2017-08-10 12:48:32.600	-0.25	0.0	0.0	0.0	3.0	20.6	17.4	50.6	-89.0	98904.2	501.0	0.08092402294278145	-145.32770233154298	0.0	0.0	424.6	-8598.0	167903.7	753.8	48.78719291687012	-906.4673156738281	0.0	2062.8	2016.8	2579.6	211.3	202.6	200.5	181.9	183838134.4
2017-08-10 12:48:32.650	-0.25	0.0	0.0	0.0	3.0	20.0	16.8	51.2	-89.2	98905.4	501.0	0.07830551117658616	-147.04547424316405	0.0	0.0	547.4	-8493.3	167885.7	752.6	44.34007530212402	-957.4143188476562	0.0	2057.2	2017.6	2578.8	214.3	203.1	201.2	179.7	183888250.2
2017-08-10 12:48:32.700	-0.25	0.0	0.0	0.0	3.0	20.0	15.0	49.8	-93.0	98904.8	501.0	0.07912948951125146	-148.5602783203125	0.0	0.0	599.8	-8363.0	167932.7	750.6	72.0159366607666	-1007.4767272949218	0.0	2061.6	2009.6	2566.0	213.4	202.9	204.2	180.0	183938344.9
2017-08-10 12:48:32.750	-0.25	0.0	0.0	0.0	3.0	20.0	15.8	53.4	-88.2	98900.3	501.0	0.07744789868593216	-148.4797607421875	0.0	0.0	970.3	-8234.4	167887.9	745.7	54.13345832824707	-1044.5766967773438	0.0	2043.6	2008.4	2577.6	210.8	204.0	206.5	184.2	183988448.5
2017-08-10 12:48:32.800	-0.25	0.0	0.0	0.0	3.0	20.0	16.4	53.2	-87.6	98901.5	501.0	0.07082335352897644	-150.1133010864258	0.0	0.0	1075.9	-8159.9	167893.1	744.3	19.05734329223633	-1086.14228515625	0.0	2054.8	2002.8	2580.0	213.7	204.5	205.1	180.8	184038591.9
2017-08-10 12:48:32.850	-0.25	0.0	0.0	0.0	3.0	20.0	17.0	53.8	-88.2	98902.1	501.0	0.07048544734716415	-151.26642913818358	0.0	0.0	956.7	-8096.8	167960.9	740.5	30.084422302246093	-1105.7980590820312	0.0	2054.0	2006.0	2571.2	214.1	205.9	206.7	180.9	184088772.1
2017-08-10 12:48:32.900	-0.25	0.0	0.0	0.0	3.0	20.0	17.4	52.2	-88.2	98902.8	501.0	0.06739492788910866	-150.83314666748046	0.0	0.0	946.2	-8081.3	167986.9	735.3	15.58051290512085	-1114.7094116210938	0.0	2054.4	1997.6	2578.8	215.4	205.9	208.0	182.0	184138897.0
2017-08-10 12:48:32.950	-0.25	0.0	0.0	0.0	3.0	20.0	17.0	53.0	-88.6	98901.1	501.0	0.06552780866622925	-153.10381927490235	0.0	0.0	848.3	-8136.5	168031.8	733.8	10.779167985916137	-1161.325146484375	0.0	2058.8	2005.6	2578.8	216.0	205.8	206.8	180.7	184189034.5
2017-08-10 12:48:33.000	-0.25	0.0	0.0	0.0	3.0	20.0	18.25	51.5	-90.0	98904.875	501.0	0.06344023626297712	-155.30371856689453	0.0	0.0	734.5	-8146.25	168072.125	732.625	17.097319960594177	-1210.7470397949219	0.0	2059.5	2003.0	2573.0	214.625	206.625	207.0	179.875	184239154.25
2017-08-10 12:48:33.050	-0.25	0.0	0.0	0.0	3.0	20.0	15.8	51.4	-90.6	98905.7	501.0	0.06121083609759807	-158.4754608154297	0.0	0.0	614.6	-8140.1	168192.6	733.2	20.430155277252197	-1268.1565307617188	0.0	2058.8	2002.4	2574.4	217.2	203.2	209.1	175.8	184289330.6
2017-08-10 12:48:33.100	-0.25	0.0	0.0	0.0	3.0	20.0	17.4	51.8	-90.2	98906.6	501.0	0.05867879427969456	-161.16437530517578	0.0	0.0	530.7	-8155.7	168260.9	733.9	0.2906230330467226	-1335.2067504882812	0.0	2055.6	1994.8	2572.0	215.7	203.8	208.0	176.1	184339379.4
2017-08-10 12:48:33.150	-0.25	0.0	0.0	0.0	3.0	20.0	15.6	51.2	-92.4	98909.3	501.2	0.05747717432677746	-162.21624755859375	0.0	0.0	396.1	-8118.4	168280.7	736.6	-21.255595779418947	-1392.00224609375	0.0	2057.2	1996.4	2567.2	213.3	205.0	205.9	175.3	184389547.2
2017-08-10 12:48:33.200	-0.25	0.0	0.0	0.0	3.0	20.0	17.0	51.4	-91.4	98906.0	501.0	0.055435099825263026	-165.1362106323242	0.0	0.0	382.3	-8040.2	168349.7	738.4	-16.955336093902588	-1438.9996826171875	0.0	2058.4	1992.4	2567.6	213.4	203.1	208.7	173.6	184439647.9
2017-08-10 12:48:33.250	-0.25	0.0	0.0	0.0	3.0	20.0	18.2	51.8	-89.8	98901.8	501.2	0.048857223615050314	-173.88690795898438	0.0	0.0	291.4	-8005.3	168403.6	735.0	-22.957599449157716	-1499.5039184570312	0.0	2052.0	1990.4	2565.6	215.7	205.9	209.1	173.6	184489879.9
2017-08-10 12:48:33.300	-0.25	0.0	0.0	0.0	3.0	20.0	17.11111111111111	53.77777777777778	-90.22222222222223	98904.66666666667	501.77777777777777	0.04816954996850756	-176.81007724338107	0.0	0.0	189.33333333333334	-7882.222222222223	168428.0	735.2222222222222	-1.0675839318169489	-1547.3590630425347	0.0	2070.6666666666665	1989.3333333333333	2575.5555555555557	213.11111111111111	206.77777777777777	209.11111111111111	174.33333333333334	184537417.33333334
2017-08-10 12:48:33.350	-0.25	0.0	0.0	0.0	3.0	20.0	17.1	52.1	-92.3	98908.4	501.4	0.047537767142057416	71.61042785644531	0.0	0.0	158.1	-7798.2	168484.3	731.7	-3.849856638908386	-1562.9528686523438	0.0	2045.6	1980.4	2563.6	215.3	208.1	210.8	173.3	184586104.8
2017-08-10 12:48:33.400	-0.25	0.0	0.0	0.0	3.0	20.0	16.444444444444443	52.22222222222222	-93.11111111111111	98908.66666666667	501.55555555555554	0.04611613932583067	178.30179172092014	0.0	0.0	58.333333333333336	-7754.888888888889	168490.0	728.4444444444445	2.56351211004787	-1575.8684895833333	0.0	2064.0	1989.3333333333333	2572.0	215.11111111111111	208.0	211.88888888888889	175.22222222222223	184637661.0
2017-08-10 12:48:33.450	-0.25	0.0	0.0	0.0	3.0	20.0	15.090909090909092	54.18181818181818	-91.63636363636364	98903.54545454546	501.27272727272725	0.04574382542209192	177.32847040349787	0.0	0.0	99.81818181818181	-7717.363636363636	168517.72727272726	728.6363636363636	-7.2987694198435005	-1538.9693048650568	0.0	2055.2727272727275	1976.7272727272727	2568.0	215.45454545454547	207.54545454545453	212.0	172.72727272727272	184687826.8181818
2017-08-10 12:48:33.500	-0.25	0.0	0.0	0.0	3.0	20.0	15.444444444444445	52.77777777777778	-92.55555555555556	98908.33333333333	501.77777777777777	0.044491818795601525	176.61973402235242	0.0	0.0	-22.22222222222222	-7702.777777777777	168548.55555555556	723.7777777777778	-0.7896334595150414	-1549.8871392144097	0.0	2058.222222222222	1988.0	2570.6666666666665	215.77777777777777	211.55555555555554	211.11111111111111	174.66666666666666	184737965.33333334
2017-08-10 12:48:33.550	-0.25	0.0	0.0	0.0	3.0	20.0	14.636363636363637	52.45454545454545	-93.0	98904.09090909091	501.6363636363636	0.04429880597374656	176.5167042125355	0.0	0.0	-145.8181818181818	-7726.818181818182	168545.9090909091	718.0909090909091	-26.179214477539062	-1560.3862970525568	0.0	2057.818181818182	1975.2727272727273	2570.5454545454545	216.36363636363637	211.45454545454547	213.72727272727272	175.72727272727272	184788107.45454547
2017-08-10 12:48:33.600	-0.25	0.0	0.0	0.0	3.0	20.0	15.555555555555555	52.0	-93.33333333333333	98907.0	501.1111111111111	0.042802661657333374	176.5142856174045	0.0	0.0	-38.888888888888886	-7736.555555555556	168517.44444444444	714.1111111111111	-54.85951487223307	-1613.780734592014	0.0	2054.6666666666665	1985.7777777777778	2575.1111111111113	215.44444444444446	212.55555555555554	212.77777777777777	177.88888888888889	184838232.55555555
2017-08-10 12:48:33.650	-0.25	0.0	0.0	0.0	3.0	20.0	12.7	53.5	-92.9	98904.8	501.4	0.04218711405992508	176.29208221435547	0.0	0.0	-149.1	-7758.8	168514.5	711.7	-36.166799545288086	-1656.4216430664062	0.0	2055.2	1978.8	2573.6	216.8	213.4	214.0	174.6	184885836.3
2017-08-10 12:48:33.700	-0.25	0.0	0.0	0.0	3.0	20.0	15.0	52.09090909090909	-92.27272727272727	98896.18181818182	501.6363636363636	0.03955904699184678	163.35398864746094	0.0	0.0	-134.63636363636363	-7675.727272727273	168543.0	709.9090909090909	-19.867386731234465	-1726.1307262073863	0.0	2061.090909090909	1974.909090909091	2578.909090909091	215.27272727272728	212.0	215.1818181818182	174.72727272727272	184938528.72727272
2017-08-10 12:48:33.750	-0.25	0.0	0.0	0.0	3.0	20.0	16.6	54.2	-91.8	98907.2	501.6	0.037188171222805974	149.41417388916017	0.0	0.0	-56.9	-7695.3	168501.6	707.2	-46.56716346740723	-1737.5091064453125	0.0	2059.6	1973.2	2574.0	214.9	213.3	214.7	175.6	184991079.3
2017-08-10 12:48:33.800	-0.25	0.0	0.0	0.0	3.0	20.0	15.666666666666666	51.666666666666664	-92.55555555555556	98900.66666666667	501.8888888888889	0.03661120558778445	149.24249267578125	0.0	0.0	-166.88888888888889	-7684.222222222223	168533.33333333334	707.4444444444445	-42.137662675645615	-1724.219265407986	0.0	2056.4444444444443	1969.3333333333333	2573.777777777778	216.55555555555554	213.0	214.33333333333334	171.55555555555554	185038817.8888889
2017-08-10 12:48:33.850	-0.125	0.0	0.0	0.0	5.0	20.0	14.3	51.7	-89.9	98905.4	501.5	0.03701416440308094	144.45477447509765	0.0	0.0	-218.3	-7641.6	168505.7	706.2	-31.559729385375977	-1763.1300537109375	0.0	2059.6	1974.8	2569.2	217.8	208.7	206.0	181.1	185086382.8
2017-08-10 12:48:33.900	0.25	0.0	0.0	0.0	8.0	20.0	13.1	50.3	-88.7	98904.8	501.9	0.034640688076615335	146.32706298828126	0.0	0.0	-233.0	-7043.5	168506.2	703.5	-31.57950839996338	-1764.0411865234375	0.0	2054.8	1991.6	2563.6	217.7	207.2	209.6	176.9	185136645.1
2017-08-10 12:48:33.950	0.25	0.0	0.0	0.0	8.0	20.0	9.2	50.4	-91.2	98906.8	501.7	0.03330717831850052	144.9295211791992	0.0	0.0	-357.9	-5565.9	168465.8	700.8	-32.14772100448609	-1807.2696533203125	0.0	2058.4	1978.0	2576.4	213.8	214.5	209.3	175.4	185186648.1
2017-08-10 12:48:34.000	0.25	0.0	0.0	0.0	8.0	20.0	4.5	51.1	-93.9	98906.0	502.0	0.0321096982806921	144.9694030761719	0.0	0.0	-513.9	-3638.9	168417.9	699.7	5.646585130691529	-1816.4761962890625	0.0	2052.8	1975.2	2578.4	210.6	216.1	212.7	172.6	185236791.5
2017-08-10 12:48:34.050	0.25	0.0	0.0	0.0	8.0	20.0	1.6	49.6	-95.2	98903.6	501.9	0.02964555099606514	144.99885101318358	0.0	0.0	-425.0	-1653.8	168428.9	699.4	1.1982795953750611	-1879.5282592773438	0.0	2053.2	1970.4	2582.8	210.2	214.7	215.4	170.0	185286858.7
2017-08-10 12:48:34.100	0.25	0.0	0.0	0.0	8.0	20.0	-5.5	51.3	-94.1	98901.5	501.7	0.027833253517746924	147.10328979492186	0.0	0.0	-441.5	400.8	168375.6	697.7	-3.0314104557037354	-1872.8482177734375	0.0	2055.6	1968.4	2586.4	208.1	217.3	214.8	170.9	185337099.8
2017-08-10 12:48:34.150	0.25	0.0	0.0	0.0	8.0	20.0	-9.4	51.4	-96.0	98903.9	502.0	0.025587641261518003	149.5892593383789	0.0	0.0	-481.6	2446.9	168316.8	696.4	-12.23164484500885	-1835.1715087890625	0.0	2052.0	1971.6	2585.6	207.7	219.7	213.9	169.8	185387203.3
2017-08-10 12:48:34.200	0.25	0.0	0.0	0.0	8.0	20.0	-15.0	49.4	-95.4	98905.7	501.8	0.02397283911705017	153.4135940551758	0.0	0.0	-516.0	4490.9	168286.5	695.4	-9.73262004852295	-1821.9159057617187	0.0	2058.8	1966.8	2587.2	205.9	219.6	214.3	170.7	185437334.6
2017-08-10 12:48:34.250	0.25	0.0	0.0	0.0	8.0	20.0	-22.2	52.2	-95.8	98906.3	501.9	0.022413925640285014	157.36195678710936	0.0	0.0	-383.9	6375.0	168188.9	694.9	-3.3849822163581846	-1729.6355102539062	0.0	2053.6	1978.0	2595.2	204.1	220.5	212.3	173.3	185487438.4
2017-08-10 12:48:34.300	0.25	0.0	0.0	0.0	8.0	20.0	-23.8	50.0	-93.2	98900.9	501.9	0.021207542903721333	160.6594482421875	0.0	0.0	-386.5	8110.4	168212.5	694.7	4.239796936511993	-1625.437548828125	0.0	2052.0	1975.2	2594.8	209.1	215.9	215.8	167.8	185537643.0
2017-08-10 12:48:34.350	0.25	0.0	0.0	0.0	8.0	20.0	-29.4	52.6	-93.2	98902.1	502.0	0.019799749366939068	165.2614318847656	0.0	0.0	-440.7	9489.5	168255.3	695.0	5.4439172625541685	-1464.0474609375	0.0	2052.4	1981.2	2594.8	212.8	213.1	214.7	167.2	185587710.0
2017-08-10 12:48:34.400	0.25	0.0	0.0	0.0	8.0	20.0	-33.4	49.0	-90.6	98900.0	501.8	0.018588974513113497	169.1833267211914	0.0	0.0	-532.2	10603.8	168255.2	696.6	22.638369750976562	-1330.4620971679688	0.0	2052.4	1984.4	2593.2	210.9	214.8	209.5	171.4	185637853.5
2017-08-10 12:48:34.450	0.25	0.0	0.0	0.0	8.0	20.0	-38.9	52.7	-91.3	98907.2	502.0	0.01826697215437889	172.8587661743164	0.0	0.0	-696.5	11346.9	168270.2	698.5	37.764785575866696	-1131.482958984375	0.0	2058.8	1996.0	2596.4	216.9	210.6	210.2	167.5	185687951.1
2017-08-10 12:48:34.500	0.25	0.0	0.0	0.0	8.0	20.0	-43.2	52.4	-91.0	98907.2	502.0	0.017886525951325893	176.42388763427735	0.0	0.0	-766.0	11939.8	168379.3	699.4	44.30716381072998	-963.0351745605469	0.0	2053.6	1994.4	2593.6	216.8	208.2	211.5	168.8	185738149.5
2017-08-10 12:48:34.550	0.25	0.0	0.0	0.0	8.0	20.0	-42.0	52.6	-91.0	98908.7	502.0	0.017481444776058196	0.0728790283203125	0.0	0.0	-760.4	12219.0	168477.6	702.3	27.202159309387206	-829.5150268554687	0.0	2055.6	2004.8	2590.8	219.8	206.0	212.5	166.0	185788289.9
2017-08-10 12:48:34.600	0.25	0.0	0.0	0.0	8.0	19.9	-44.5	52.5	-89.9	98907.8	502.0	0.01717388313263655	-176.70157623291016	0.0	0.0	-690.0	12183.4	168583.6	703.7	35.14149570465088	-757.9060485839843	0.0	2057.2	2001.2	2589.6	216.9	208.5	209.3	170.3	185838384.4
2017-08-10 12:48:34.650	0.25	0.0	0.0	0.0	8.0	19.0	-44.7	52.5	-88.3	98906.9	502.0	0.0204654885455966	-30.866609191894533	0.0	0.0	-606.0	11750.5	168669.0	706.1	30.088958930969238	-670.2342529296875	0.0	2058.8	2011.2	2590.8	220.5	205.0	210.6	167.8	185888521.9
2017-08-10 12:48:34.700	0.25	0.0	0.0	0.0	8.0	19.0	-42.22222222222222	55.333333333333336	-91.55555555555556	98902.33333333333	502.0	0.02243059418267674	111.79772440592448	0.0	0.0	-416.77777777777777	11125.333333333334	168814.55555555556	708.4444444444445	36.94730589124892	-555.051266140408	0.0	2057.3333333333335	2003.5555555555557	2587.5555555555557	220.88888888888889	202.44444444444446	211.55555555555554	168.77777777777777	185936123.0
2017-08-10 12:48:34.750	0.25	0.0	0.0	0.0	8.0	19.0	-41.4	52.6	-88.6	98899.1	502.0	0.019682184047996997	114.96726684570312	0.0	0.0	-222.8	10258.8	168930.0	712.1	38.58403091430664	-445.4080108642578	0.0	2055.6	2015.2	2585.2	221.0	201.7	210.4	169.2	185983815.8
2017-08-10 12:48:34.800	0.25	0.0	0.0	0.0	8.0	19.0	-39.09090909090909	54.72727272727273	-89.27272727272727	98898.09090909091	502.0	0.016410175202922386	119.97644805908203	0.0	0.0	90.45454545454545	8858.363636363636	169138.9090909091	714.6363636363636	45.67786199396307	-322.4200911088423	0.0	2058.5454545454545	2024.0	2583.6363636363635	225.8181818181818	194.36363636363637	212.45454545454547	169.36363636363637	186036395.9090909
2017-08-10 12:48:34.850	0.25	0.0	0.0	0.0	8.0	19.0	-37.0	54.6	-88.6	98903.0	502.0	0.01416109362617135	134.78463439941407	0.0	0.0	341.6	7162.7	169243.0	716.5	51.109426498413086	-227.0374954223633	0.0	2058.8	2030.8	2580.4	223.4	196.6	207.5	175.1	186089083.3
2017-08-10 12:48:34.900	0.25	0.0	0.0	0.0	4.0	19.0	-32.7	52.5	-90.5	98906.0	502.0	0.013551109097898006	141.94569549560546	0.0	0.0	542.7	5485.3	169360.9	716.4	63.231205749511716	-147.45088272094728	0.0	2053.6	2033.2	2583.2	226.4	197.9	214.6	169.0	186139214.6
2017-08-10 12:48:34.950	0.25	0.0	0.0	0.0	4.0	19.0	-33.0	55.0	-89.6	98898.2	502.0	0.010797763895243406	132.49529571533202	0.0	0.0	836.1	3476.0	169413.6	716.4	61.71988105773926	-66.86358261108398	0.0	2051.6	2031.6	2579.6	225.0	195.8	208.5	177.0	186189294.0
2017-08-10 12:48:35.000	0.25	0.0	0.0	0.0	3.9	19.0	-24.4	56.2	-89.0	98897.6	502.0	0.009365660790354013	-167.55384216308593	0.0	0.0	1160.2	1371.9	169431.2	717.2	33.18510150909424	-12.748011326789856	0.0	2054.0	2039.6	2580.0	227.6	191.6	202.6	183.9	186239495.3
2017-08-10 12:48:35.050	0.25	0.0	0.0	0.0	3.0	19.0	-18.8	57.2	-89.4	98908.4	502.0	0.009451425448060036	-161.63822326660156	0.0	0.0	1137.8	-343.0	169388.5	714.6	22.08718605041504	1.2734226271510125	0.0	2049.6	2057.2	2574.0	240.3	182.1	193.7	191.6	186289571.7
2017-08-10 12:48:35.100	0.25	0.0	0.0	0.0	3.0	19.0	-20.1	56.5	-91.3	98901.8	502.0	0.008760010171681643	-149.98658447265626	0.0	0.0	702.7	-620.6	169457.5	713.6	1.9186452150344848	9.391915845870972	0.0	2048.0	2053.2	2571.6	241.2	186.8	194.4	186.4	186339760.9
2017-08-10 12:48:35.150	0.25	0.0	0.0	0.0	3.0	19.0	-24.444444444444443	56.0	-92.0	98908.33333333333	502.0	0.009210943968759643	-135.70215861002603	0.0	0.0	164.22222222222223	-111.55555555555556	169478.22222222222	712.0	-10.816761546664768	33.42050997416178	0.0	2054.6666666666665	2059.5555555555557	2568.8888888888887	241.11111111111111	189.77777777777777	195.55555555555554	183.77777777777777	186387396.55555555
2017-08-10 12:48:35.200	0.25	0.0	0.0	0.0	3.0	19.0	-23.272727272727273	54.0	-89.81818181818181	98904.09090909091	502.0	0.010363234207034111	-117.57323802601208	0.0	0.0	-272.0	860.9090909090909	169466.0	712.0	-29.50326017899947	70.7380090193315	0.0	2058.5454545454545	2049.090909090909	2575.2727272727275	238.0	193.36363636363637	195.0	183.54545454545453	186437496.72727272
2017-08-10 12:48:35.250	0.25	0.0	0.0	0.0	3.0	19.0	-27.11111111111111	54.888888888888886	-92.44444444444444	98901.66666666667	502.0	0.012776080208520094	-112.5769771999783	0.0	0.0	-666.4444444444445	2038.111111111111	169393.66666666666	712.0	-33.266304863823784	111.12557644314236	0.0	2056.8888888888887	2044.4444444444443	2577.3333333333335	234.77777777777777	197.11111111111111	194.11111111111111	184.22222222222223	186487599.33333334
2017-08-10 12:48:35.300	0.25	0.0	0.0	0.0	3.0	19.0	-28.8	54.4	-93.6	98903.9	502.0	0.015855639334768058	-104.25932693481445	0.0	0.0	-825.1	3064.9	169334.8	711.1	-39.25672035217285	160.01761779785156	0.0	2060.8	2052.8	2577.2	235.2	196.5	195.9	184.1	186535271.7
2017-08-10 12:48:35.350	0.25	0.0	0.0	0.0	3.0	19.0	-26.454545454545453	54.27272727272727	-93.18181818181819	98905.45454545454	502.0	0.019478934901681812	-101.3218564120206	0.0	0.0	-853.8181818181819	3984.4545454545455	169242.0909090909	710.6363636363636	-42.91016804088246	217.58241826837713	0.0	2056.3636363636365	2047.6363636363637	2571.6363636363635	233.54545454545453	197.8181818181818	195.45454545454547	186.1818181818182	186587895.72727272
2017-08-10 12:48:35.400	0.25	0.0	0.0	0.0	3.0	19.0	-30.11111111111111	54.333333333333336	-91.22222222222223	98914.0	502.0	0.0226015645182795	-101.45202891031902	0.0	0.0	-737.8888888888889	4846.666666666667	169171.22222222222	710.5555555555555	-34.62098587883843	270.8997751871745	0.0	2061.3333333333335	2054.6666666666665	2577.777777777778	229.77777777777777	200.33333333333334	195.55555555555554	187.77777777777777	186638044.0
2017-08-10 12:48:35.450	0.25	0.0	0.0	0.0	3.0	19.0	-32.8	53.2	-88.4	98904.5	502.0	0.02592201381921768	-102.69587936401368	0.0	0.0	-502.2	5523.1	168993.1	711.0	-17.757954406738282	329.7150054931641	0.0	2057.2	2050.8	2582.8	226.4	200.9	193.7	192.8	186685686.7
2017-08-10 12:48:35.500	0.25	0.0	0.0	0.0	3.0	19.0	-33.8	53.4	-90.2	98902.4	502.0	0.029222432151436807	-96.01162719726562	0.0	0.0	4.7	5891.4	168862.9	714.5	-38.19615364074707	387.84510803222656	0.0	2049.6	2051.6	2580.8	222.6	198.8	191.7	197.4	186735814.9
2017-08-10 12:48:35.550	0.25	0.0	0.0	0.0	3.0	19.0	-33.0	53.4	-89.0	98902.1	502.0	0.03223350904881954	-90.1911407470703	0.0	0.0	397.0	6086.9	168738.9	717.0	-80.13537826538087	446.9753051757813	0.0	2060.4	2065.6	2584.8	225.3	196.1	192.3	195.4	186785927.7
2017-08-10 12:48:35.600	0.25	0.0	0.0	0.0	3.0	19.0	-34.4	53.6	-88.0	98905.7	502.0	0.03390283137559891	-90.66002502441407	0.0	0.0	636.4	6203.1	168686.6	717.9	-81.26136169433593	503.0577758789062	0.0	2054.4	2062.4	2584.0	228.0	194.1	193.5	194.2	186836123.3
2017-08-10 12:48:35.650	0.25	0.0	0.0	0.0	3.0	19.0	-34.6	55.8	-87.0	98904.2	502.0	0.03646724186837673	-92.20212173461914	0.0	0.0	651.5	6222.0	168652.3	717.3	-76.11155853271484	556.1388061523437	0.0	2054.0	2063.2	2571.6	229.0	187.8	190.1	188.2	186886175.1
2017-08-10 12:48:35.700	0.25	0.0	0.0	0.0	3.0	19.0	-35.09090909090909	57.81818181818182	-91.27272727272727	98910.09090909091	502.0	0.03994881734251976	-92.90102455832742	0.0	0.0	537.4545454545455	6109.818181818182	168588.27272727274	714.2727272727273	-69.62229919433594	612.9736827503551	0.0	2061.4545454545455	2071.2727272727275	2565.090909090909	229.0	190.9090909090909	186.9090909090909	192.9090909090909	186938883.72727272
2017-08-10 12:48:35.750	0.25	0.0	0.0	0.0	3.0	19.0	-31.77777777777778	56.888888888888886	-87.11111111111111	98902.0	502.0	0.04157637349433369	-92.68173726399739	0.0	0.0	496.77777777777777	5940.0	168486.77777777778	714.3333333333334	-68.95911026000977	655.8446723090278	0.0	2060.4444444444443	2073.3333333333335	2570.6666666666665	229.0	192.0	185.66666666666666	197.55555555555554	186988948.55555555
2017-08-10 12:48:35.800	0.25	0.0	0.0	0.0	3.0	19.0	-33.2	57.2	-90.0	98905.4	502.0	0.04420225769281387	-91.58219909667969	0.0	0.0	389.4	5812.1	168426.5	716.0	-92.18697662353516	693.1761657714844	0.0	2054.4	2070.8	2566.8	229.0	187.7	182.0	190.4	187036687.8
2017-08-10 12:48:35.850	0.25	0.0	0.0	0.0	3.0	19.0	-32.2	53.8	-92.6	98899.4	502.0	0.048184235394001004	-93.43490676879883	0.0	0.0	190.7	5763.2	168332.5	714.2	-92.77319030761718	752.2705444335937	0.0	2061.6	2077.2	2560.0	229.0	190.2	182.3	194.1	187086819.0
2017-08-10 12:48:35.900	0.25	0.0	0.0	0.0	3.0	19.0	-34.6	53.8	-93.0	98904.2	502.0	0.05182560011744499	-93.00994033813477	0.0	0.0	173.9	5748.2	168293.0	711.9	-103.82845077514648	812.8921569824219	0.0	2063.6	2080.0	2559.6	229.0	187.5	182.7	193.3	187136876.8
2017-08-10 12:48:35.950	0.25	0.0	0.0	0.0	3.0	19.0	-34.0	56.0	-90.8	98904.8	502.0	0.05562279596924782	-93.49971084594726	0.0	0.0	120.5	5821.9	168270.3	707.9	-107.11776351928711	859.2412353515625	0.0	2061.6	2078.8	2563.2	229.0	186.0	181.4	190.2	187187099.7
2017-08-10 12:48:36.000	0.25	0.0	0.0	0.0	3.0	19.0	-32.4	55.6	-90.8	98902.1	502.0	0.056983094289898874	-94.87711334228516	0.0	0.0	76.4	5807.8	168231.3	705.0	-100.94638900756836	921.5065979003906	0.0	2059.2	2076.8	2557.2	229.0	187.1	180.1	194.3	187237118.0
2017-08-10 12:48:36.050	0.25	0.0	0.0	0.0	3.0	19.0	-34.2	55.8	-94.6	98899.4	502.0	0.06377243995666504	-95.30807876586914	0.0	0.0	43.9	5868.7	168235.5	698.5	-103.28931427001953	984.4386352539062	0.0	2064.0	2084.4	2558.0	229.0	182.1	180.6	187.1	187287346.9
2017-08-10 12:48:36.100	0.25	0.0	0.0	0.0	3.0	19.0	-32.0	54.4	-92.4	98899.1	502.0	0.0670306071639061	-96.93506317138672	0.0	0.0	22.2	6027.3	168207.7	695.2	-93.8355827331543	1021.4507690429688	0.0	2067.2	2088.4	2555.6	229.0	189.4	180.7	195.8	187337395.7
2017-08-10 12:48:36.150	0.25	0.0	0.0	0.0	3.0	19.0	-33.2	52.0	-94.0	98903.0	502.0	0.07138981074094772	-97.51093826293945	0.0	0.0	2.1	6141.0	168192.6	700.4	-93.5458480834961	1081.5904296875	0.0	2060.4	2096.0	2560.8	229.0	184.3	179.4	190.0	187387618.6
2017-08-10 12:48:36.200	0.25	0.0	0.0	0.0	3.0	19.0	-32.44444444444444	56.44444444444444	-92.66666666666667	98907.33333333333	502.0	0.07434421281019847	-98.1852315266927	0.0	0.0	-143.55555555555554	6303.666666666667	168181.33333333334	692.4444444444445	-92.91089969211154	1123.271484375	0.0	2061.777777777778	2087.5555555555557	2552.0	229.0	184.22222222222223	177.66666666666666	188.0	187435149.66666666
2017-08-10 12:48:36.250	0.25	0.0	0.0	0.0	3.0	19.0	-33.63636363636363	52.18181818181818	-93.0909090909091	98900.54545454546	502.0	0.07777293636040254	-98.88920038396662	0.0	0.0	-247.36363636363637	6394.454545454545	168227.45454545456	682.4545454545455	-81.227351101962	1160.6588023792613	0.0	2054.909090909091	2083.2727272727275	2544.7272727272725	229.0	180.72727272727272	179.1818181818182	186.9090909090909	187485309.36363637
2017-08-10 12:48:36.300	0.25	0.0	0.0	0.0	3.0	19.0	-32.0	50.4	-92.0	98902.7	502.0	0.08169187530875206	-97.12688522338867	0.0	0.0	-240.6	6542.2	168237.7	671.2	-100.65696182250977	1187.50654296875	0.0	2060.8	2094.8	2551.6	229.0	181.3	177.4	186.3	187537960.3
2017-08-10 12:48:36.350	0.25	0.0	0.0	0.0	3.0	19.0	-31.6	50.8	-92.8	98902.4	502.0	0.08405640497803687	-97.93370895385742	0.0	0.0	-332.1	6680.0	168302.8	660.3	-99.41982192993164	1214.0259887695313	0.0	2062.4	2096.4	2536.4	229.0	181.6	178.4	186.7	187588125.1
2017-08-10 12:48:36.400	0.25	0.0	0.0	0.0	3.0	19.0	-34.44444444444444	52.0	-93.11111111111111	98900.33333333333	502.0	0.08766722182432811	-99.13664415147569	0.0	0.0	-293.77777777777777	6780.777777777777	168347.88888888888	651.0	-70.27861913045247	1266.4872368706597	0.0	2059.1111111111113	2090.6666666666665	2549.3333333333335	229.0	177.0	177.33333333333334	184.22222222222223	187635690.8888889
2017-08-10 12:48:36.450	0.25	0.0	0.0	0.0	3.0	19.0	-32.2	53.2	-92.8	98906.6	502.0	0.09415303245186805	-99.88935165405273	0.0	0.0	-167.0	6882.8	168378.9	641.9	-54.61268577575684	1312.2083984375	0.0	2064.0	2100.8	2544.8	229.0	183.0	180.0	190.5	187683385.7
2017-08-10 12:48:36.500	0.25	0.0	0.0	0.0	3.0	19.0	-30.545454545454547	52.72727272727273	-92.9090909090909	98900.0	502.0	0.09657796607776122	-100.49563945423473	0.0	0.0	-173.0909090909091	7040.0	168396.36363636365	630.2727272727273	-36.78988387367942	1362.5701127485795	0.0	2058.181818181818	2094.181818181818	2545.818181818182	229.0	179.45454545454547	177.63636363636363	185.9090909090909	187736019.72727272
2017-08-10 12:48:36.550	0.25	0.0	0.0	0.0	3.0	19.0	-33.0	51.0	-91.4	98901.1	502.0	0.09882555902004242	-100.99564895629882	0.0	0.0	-75.5	7255.8	168396.1	615.6	-36.41451835632324	1379.7621215820313	0.0	2060.8	2100.0	2547.2	229.0	184.5	180.7	191.1	187788598.1
2017-08-10 12:48:36.600	0.25	0.0	0.0	0.0	3.0	19.0	-33.4	53.0	-93.0	98904.2	502.0	0.10288389176130294	-101.6610481262207	0.0	0.0	-169.9	7332.3	168436.9	603.7	-36.40305461883545	1404.3911254882812	0.0	2061.2	2104.8	2540.0	229.0	175.7	175.3	181.7	187838738.6
2017-08-10 12:48:36.650	0.25	0.0	0.0	0.0	3.0	19.0	-35.4	54.2	-92.6	98901.8	502.0	0.10298267975449563	-102.6431381225586	0.0	0.0	-207.5	7455.6	168428.2	587.1	-31.294372177124025	1404.6535034179688	0.0	2062.4	2102.4	2539.2	229.0	184.3	179.0	190.8	187888869.7
