time	leftRight	frontBack	up	angular	State	Battery_level	Magnetometer_x	Magnetometer_y	Magnetometer_z	Pressure	Temperature	Wind_speed	Wind_angle	Wind_compensation:pitch	Wind_compensation:roll	Pitch_y	Roll_x	Yaw_z	Altitude	Velocity_x	Velocity_y	Velocity_z	Acceleration_x	Acceleration_y	Acceleration_z	Motor_1_power	Motor_2_power	Motor_3_power	Motor_4_power	time_board
2020-06-30 07:29:35.650	0.0	0.0	0.0	0.25	7.0	65.0	28.6	8.0	-84.2	98834.9	344.0	0.0	0.0	0.0	0.0	3.5	-20.8	52366.3	0.0	-0.21852837055921553	-8.095528030395508	0.0	2068.0	2040.0	2576.0	70.0	70.0	70.0	70.0	204523937.6
2020-06-30 07:29:35.700	0.0	0.0	0.0	0.25	7.0	65.0	29.0	7.4	-88.0	98832.8	344.0	0.0	0.0	0.0	0.0	8.5	-31.6	52363.5	0.0	-0.12759963274002076	-2.4051573634147645	0.0	2068.0	2043.6	2576.0	70.0	70.0	70.0	70.0	204574004.6
2020-06-30 07:29:35.750	0.0	0.0	0.0	0.25	7.0	65.0	30.444444444444443	8.222222222222221	-86.66666666666667	98835.33333333333	344.44444444444446	0.0	0.0	0.0	0.0	11.555555555555555	-32.888888888888886	52361.22222222222	0.0	-0.07865956839587954	-1.2513596879111395	0.0	2068.0	2044.0	2576.8888888888887	70.0	70.0	70.0	70.0	204621520.55555555
2020-06-30 07:29:35.800	0.0	0.0	0.0	0.25	7.0	65.0	28.8	6.6	-84.2	98833.9	344.5	0.0	0.0	0.0	0.0	14.1	-40.3	52360.9	0.0	-0.1096267744898796	-0.21905796453356743	0.0	2068.0	2041.6	2576.0	70.0	70.0	70.0	70.0	204677688.1
2020-06-30 07:29:35.850	0.0	0.0	0.0	0.25	7.0	65.0	28.5	8.25	-86.5	98830.5	344.0	0.0	0.0	0.0	0.0	17.625	-45.625	52360.5	0.0	-0.12352147232741117	-0.3638259842991829	0.0	2068.0	2044.0	2576.5	70.0	70.0	70.0	70.0	204724708.0
2020-06-30 07:29:35.900	0.0	0.0	0.0	0.25	7.0	65.0	27.90909090909091	8.454545454545455	-84.63636363636364	98834.81818181818	344.6363636363636	0.0	0.0	0.0	0.0	18.90909090909091	-47.18181818181818	52360.181818181816	0.0	-0.12392287769100883	-0.6360566724430431	0.0	2068.0	2044.0	2576.0	70.0	70.0	70.0	70.0	204776699.54545453
2020-06-30 07:29:35.950	0.0	0.0	0.0	0.25	7.0	65.0	29.6	8.4	-88.0	98829.5	344.6	0.0	0.0	0.0	0.0	19.2	-50.4	52357.6	0.0	-0.14187577962875367	-0.509198796749115	0.0	2068.0	2043.2	2576.4	70.0	70.0	70.0	70.0	204829226.1
2020-06-30 07:29:36.000	0.0	0.0	0.0	0.25	7.0	65.0	35.0	9.5	-87.0	98827.0	345.0	0.0	0.0	0.0	0.0	21.375	-52.5	52354.25	0.0	-0.17439761944115162	-0.5164579637348652	0.0	2067.5	2043.5	2576.0	70.0	70.0	70.0	70.0	204874251.875
2020-06-30 07:29:36.050	0.0	0.0	0.0	0.25	7.0	65.0	32.1	8.3	-88.9	98832.8	345.0	0.0	0.0	0.0	0.0	35.8	-34.2	52328.8	0.0	-0.0164030522108078	-0.427610932290554	0.0	2070.4	2045.2	2576.8	70.0	70.0	70.0	70.0	204924300.6
2020-06-30 07:29:36.100	0.0	0.0	0.0	0.25	7.0	65.0	38.166666666666664	20.833333333333332	-91.16666666666667	98831.83333333333	345.0	0.0	0.0	0.0	0.0	48.333333333333336	-14.166666666666666	52299.0	0.0	0.802566001812617	-0.38355673019153375	0.0	2068.6666666666665	2034.6666666666667	2578.0	70.0	70.0	70.0	70.0	204976073.66666666
2020-06-30 07:29:36.150	0.0	0.0	0.0	0.25	7.0	65.0	24.2	9.0	-87.0	98833.4	345.0	0.0	0.0	0.0	0.0	50.3	-42.5	52307.0	0.0	1.0689882516860962	0.2467761043459177	0.0	2072.0	2041.2	2580.8	70.0	70.0	70.0	70.0	205024358.7
2020-06-30 07:29:36.200	0.0	0.0	0.0	0.25	7.0	65.0	30.0	9.6	-88.4	98835.5	345.0	0.0	0.0	0.0	0.0	64.0	-54.1	52288.6	0.0	0.942652302980423	-0.43508106749504805	0.0	2072.0	2044.4	2577.6	70.0	70.0	70.0	70.0	205074480.8
2020-06-30 07:29:36.250	0.0	0.0	0.0	0.25	7.0	65.0	32.3	10.3	-85.9	98831.3	345.0	0.0	0.0	0.0	0.0	73.3	-55.1	52285.8	0.0	0.8942424595355988	-0.15361962243914604	0.0	2071.2	2042.8	2579.6	70.0	70.0	70.0	70.0	205124419.7
2020-06-30 07:29:36.300	0.0	0.0	0.0	0.25	7.0	65.0	33.90909090909091	8.090909090909092	-90.63636363636364	98835.90909090909	345.0	0.0	0.0	0.0	0.0	77.54545454545455	-62.0	52286.0	0.0	0.17029131948947906	-0.4613987722180106	0.0	2069.818181818182	2043.6363636363637	2577.4545454545455	70.0	70.0	70.0	70.0	205177112.36363637
2020-06-30 07:29:36.350	0.0	0.0	0.0	0.25	7.0	65.0	28.0	13.6	-76.8	98832.0	345.0	0.0	0.0	0.0	0.0	80.0	-64.0	52288.7	0.0	-0.13095127940177917	-0.7107977986335754	0.0	2070.0	2044.0	2576.4	70.0	70.0	70.0	70.0	205229525.3
2020-06-30 07:29:36.400	0.0	0.0	0.0	0.25	7.0	65.0	27.444444444444443	17.666666666666668	-85.88888888888889	98834.66666666667	345.0	0.0	0.0	0.0	0.0	84.11111111111111	-63.888888888888886	52289.11111111111	0.0	-0.08494811018721925	-0.7124227351612515	0.0	2071.1111111111113	2042.6666666666667	2578.222222222222	70.22222222222223	70.22222222222223	70.22222222222223	70.22222222222223	205277231.33333334
2020-06-30 07:29:36.450	0.0	0.0	0.0	0.25	7.0	65.0	30.333333333333332	9.222222222222221	-88.77777777777777	98833.0	345.0	0.0	0.0	0.0	0.0	88.0	-67.44444444444444	52289.88888888889	0.0	-0.033573698769840926	-0.27949748034006916	0.0	2070.222222222222	2042.2222222222222	2577.777777777778	72.0	72.0	72.0	72.0	205322709.33333334
2020-06-30 07:29:36.500	0.0	0.0	0.0	0.25	7.0	65.0	31.875	7.125	-90.125	98834.0	345.0	0.0	0.0	0.0	0.0	90.75	-74.0	52281.5	0.0	-0.15674499608576298	-0.2133457539603114	0.0	2070.5	2042.5	2578.0	72.0	72.0	72.0	72.0	205378459.375
2020-06-30 07:29:36.550	0.0	0.0	0.0	0.25	7.0	65.0	33.81818181818182	10.909090909090908	-84.0	98836.72727272728	345.0	0.0	0.0	0.0	0.0	95.45454545454545	-84.45454545454545	52289.09090909091	0.0	-0.2365794229236516	-0.4139647673476826	0.0	2070.5454545454545	2041.4545454545455	2574.5454545454545	72.0	72.0	72.0	72.0	205427201.1818182
2020-06-30 07:29:36.600	0.0	0.0	0.0	0.25	7.0	65.0	32.5	11.0	-88.0	98838.5	345.0	0.0	0.0	0.0	0.0	103.875	-115.875	52304.125	0.0	-0.4429869055747986	-0.23525040037930012	0.0	2071.5	2044.5	2572.0	72.0	72.0	72.0	72.0	205479861.625
2020-06-30 07:29:36.650	0.0	0.0	0.0	0.25	7.0	65.0	33.54545454545455	9.727272727272727	-85.36363636363636	98839.18181818182	345.0	0.0	0.0	0.0	0.0	105.27272727272727	-130.72727272727272	52323.0	0.0	-0.7085363675247539	-0.04111225124109875	0.0	2068.0	2043.6363636363637	2578.181818181818	72.0	72.0	72.0	72.0	205527379.1818182
2020-06-30 07:29:36.700	0.0	0.0	0.0	0.25	7.0	65.0	34.5	8.5	-88.5	98837.75	345.0	0.0	0.0	0.0	0.0	94.25	-124.875	52330.5	0.0	-1.1295278817415237	-1.1004295982420444	0.0	2069.0	2033.0	2577.0	72.0	72.0	72.0	72.0	205574881.875
2020-06-30 07:29:36.750	0.0	0.0	0.0	0.25	7.0	65.0	33.6	10.4	-88.0	98838.2	345.0	0.0	0.0	0.0	0.0	99.6	-138.0	52327.7	0.0	-1.0371808350086211	-0.41207132637500765	0.0	2071.2	2040.0	2578.4	72.0	72.0	72.0	72.0	205619866.3
2020-06-30 07:29:36.800	0.0	0.0	0.0	0.25	7.0	65.0	34.5	12.5	-85.16666666666667	98838.0	345.0	0.0	0.0	0.0	0.0	100.16666666666667	-129.5	52340.5	0.0	-0.5391486237446467	-0.7690091778834661	0.0	2070.6666666666665	2031.3333333333333	2578.6666666666665	72.0	72.0	72.0	72.0	205671661.0
2020-06-30 07:29:36.850	0.0	0.0	0.0	0.25	7.0	65.0	29.125	13.875	-88.625	98837.375	345.0	0.0	0.0	0.0	0.0	94.5	-126.25	52343.0	0.0	-1.2935195043683052	-0.897566775791347	0.0	2068.0	2038.0	2578.5	72.0	72.0	72.0	72.0	205729362.0
2020-06-30 07:29:36.900	0.0	0.0	0.0	0.25	7.0	65.0	30.1	11.1	-87.3	98839.7	345.0	0.0	0.0	0.0	0.0	88.6	-147.2	52336.0	0.0	-1.620058500766754	-0.5414147764444353	0.0	2067.2	2044.0	2576.8	72.0	72.0	72.0	72.0	205775106.2
2020-06-30 07:29:36.950	0.0	0.0	0.0	0.25	7.0	65.0	30.11111111111111	9.444444444444445	-88.55555555555556	98838.33333333333	345.0	0.0	0.0	0.0	0.0	79.44444444444444	-141.0	52327.22222222222	0.0	-1.411029252741072	-0.053072902891370996	0.0	2068.0	2046.2222222222222	2576.0	72.0	72.0	72.0	72.0	205822563.55555555
2020-06-30 07:29:37.000	0.0	0.0	0.0	0.25	7.0	65.0	34.36363636363637	8.909090909090908	-86.36363636363636	98836.45454545454	345.0	0.0	0.0	0.0	0.0	79.45454545454545	-143.8181818181818	52323.27272727273	0.0	-0.9485968134619973	-0.6254149837927385	0.0	2069.4545454545455	2041.4545454545455	2576.7272727272725	72.0	72.0	72.0	72.0	205872674.63636363
2020-06-30 07:29:37.050	0.0	0.0	0.0	0.25	7.0	65.0	34.5	11.5	-86.5	98838.8	345.0	0.0	0.0	0.0	0.0	81.7	-153.6	52311.9	0.0	-0.8180488884449005	-0.7893227458000183	0.0	2069.6	2041.2	2576.8	72.0	72.0	72.0	72.0	205925191.7
2020-06-30 07:29:37.100	0.0	0.0	0.0	0.25	7.0	65.0	33.1	11.3	-87.3	98837.0	345.0	0.0	0.0	0.0	0.0	83.1	-148.7	52324.4	0.0	-0.4232529181987047	-1.2619093669578434	0.0	2072.0	2038.8	2577.2	72.0	72.0	72.0	72.0	205975265.1
2020-06-30 07:29:37.150	0.0	0.0	0.0	0.25	7.0	65.0	31.5	10.5	-86.5	98838.8	345.0	0.0	0.0	0.0	0.0	91.1	-159.6	52322.2	0.0	-0.003364302217960352	-1.2552543997764587	0.0	2071.6	2039.6	2578.8	72.4	72.4	72.4	72.4	206025225.2
2020-06-30 07:29:37.200	0.0	0.0	0.0	0.25	7.0	65.0	31.7	10.5	-87.1	98841.2	345.0	0.0	0.0	0.0	0.0	92.9	-159.1	52325.2	0.0	-0.1684885781025514	-0.9014991916716099	0.0	2070.8	2040.4	2578.8	75.9	75.4	75.9	76.5	206075344.2
2020-06-30 07:29:37.250	0.0	0.0	0.0	0.25	7.0	65.0	30.88888888888889	8.444444444444445	-85.33333333333333	98836.33333333333	345.0	0.0	0.0	0.0	0.0	90.33333333333333	-171.33333333333334	52310.11111111111	0.0	-0.01647234780506955	-0.5738507575458951	0.0	2070.6666666666665	2047.5555555555557	2578.222222222222	78.88888888888889	79.88888888888889	78.33333333333333	81.0	206122822.44444445
2020-06-30 07:29:37.300	0.0	0.0	0.0	0.25	7.0	65.0	30.90909090909091	11.272727272727273	-87.81818181818181	98837.54545454546	345.0	0.0	0.0	0.0	0.0	86.54545454545455	-147.1818181818182	52305.09090909091	0.0	-0.0811515182934024	-0.5237868966704066	0.0	2071.6363636363635	2036.3636363636363	2579.2727272727275	83.63636363636364	83.63636363636364	83.72727272727273	84.27272727272727	206172898.1818182
2020-06-30 07:29:37.350	0.0	0.0	0.0	0.25	7.0	65.0	33.0	10.6	-85.6	98840.6	345.0	0.0	0.0	0.0	0.0	77.8	-141.7	52325.8	0.0	0.335323202246218	-0.2422657161951065	0.0	2074.0	2041.6	2579.2	88.6	86.8	88.5	87.6	206225405.5
2020-06-30 07:29:37.400	0.0	0.0	0.0	0.25	7.0	65.0	33.4	11.0	-86.2	98838.2	345.0	0.0	0.0	0.0	0.0	83.6	-134.4	52319.5	0.0	0.40955463498830796	-0.6393353253602981	0.0	2070.4	2040.8	2578.0	91.2	92.4	90.8	93.4	206275509.1
2020-06-30 07:29:37.450	0.0	0.0	0.0	0.25	7.0	65.0	31.9	11.1	-85.7	98837.3	345.0	0.0	0.0	0.0	0.0	86.3	-155.6	52322.0	0.0	0.2889242023229599	-1.020777228474617	0.0	2073.6	2042.4	2578.4	96.5	95.0	95.7	96.3	206325509.1
2020-06-30 07:29:37.500	0.0	0.0	0.0	0.25	7.0	65.0	31.1	10.9	-85.1	98838.4	345.0	0.0	0.0	0.0	0.0	92.2	-162.7	52342.6	0.0	0.6066439613699913	-0.6539969339966774	0.0	2073.6	2040.8	2578.0	100.2	99.1	99.9	100.3	206375521.5
2020-06-30 07:29:37.550	0.0	0.0	0.0	0.25	7.0	65.0	29.9	7.3	-89.7	98843.9	345.0	0.0	0.0	0.0	0.0	106.4	-166.5	52408.6	0.0	0.6176244974136352	-0.32500311653129754	0.0	2071.2	2041.6	2581.2	107.7	99.6	107.6	100.8	206425609.9
2020-06-30 07:29:37.600	0.0	0.0	0.0	0.25	7.0	65.0	31.0	9.4	-88.8	98834.3	345.0	0.0	0.0	0.0	0.0	104.8	-172.8	52625.2	0.0	-1.3172040075063705	-0.727093118429184	0.0	2064.4	2042.4	2573.2	117.8	97.6	117.4	98.9	206475625.1
2020-06-30 07:29:37.650	0.0	0.0	0.0	0.25	7.0	65.0	29.7	12.1	-87.5	98836.1	345.0	0.0	0.0	0.0	0.0	107.6	-154.7	52766.8	0.0	-2.0147468209266663	-2.9155600666999817	0.0	2070.0	2046.8	2573.6	116.2	106.8	116.4	108.1	206525731.9
2020-06-30 07:29:37.700	0.0	0.0	0.0	0.25	7.0	65.0	30.444444444444443	10.88888888888889	-86.0	98840.33333333333	345.0	0.0	0.0	0.0	0.0	129.77777777777777	-143.0	52738.22222222222	0.0	-0.5478779955042733	-2.0746075577206082	0.0	2075.1111111111113	2040.0	2577.777777777778	116.66666666666667	113.77777777777777	116.44444444444444	115.11111111111111	206573262.1111111
2020-06-30 07:29:37.750	0.0	0.0	0.0	0.25	7.0	65.0	32.9	9.7	-84.1	98841.8	345.0	0.0	0.0	0.0	0.0	95.6	-166.6	52779.3	0.0	-0.324159381352365	-0.4297619670629501	0.0	2068.8	2035.2	2583.2	123.5	116.1	122.7	117.1	206621273.3
2020-06-30 07:29:37.800	0.0	0.0	0.0	0.25	7.0	65.0	33.714285714285715	12.285714285714286	-82.28571428571429	98844.71428571429	345.0	0.0	0.0	0.0	0.0	113.42857142857143	-196.28571428571428	52947.857142857145	0.0	-1.0220553960118974	1.3152722035135542	0.0	2071.4285714285716	2036.0	2577.1428571428573	133.0	114.71428571428571	132.28571428571428	116.28571428571429	206680471.7142857
2020-06-30 07:29:37.850	0.0	0.0	0.0	0.25	7.0	65.0	30.875	13.125	-87.125	98841.875	345.0	0.0	0.0	0.0	0.0	101.75	-247.875	53147.5	0.0	-1.6148565113544464	-0.9145194557495415	0.0	2072.0	2055.0	2580.0	140.25	115.375	138.875	117.375	206728377.875
2020-06-30 07:29:37.900	0.0	0.0	0.0	0.25	7.0	65.0	31.333333333333332	12.666666666666666	-84.88888888888889	98838.66666666667	345.0	0.0	0.0	0.0	0.0	109.88888888888889	-242.22222222222223	53267.77777777778	0.0	0.39553895095984143	-2.841140243742201	0.0	2076.4444444444443	2040.888888888889	2579.1111111111113	139.55555555555554	124.0	139.0	125.22222222222223	206775603.66666666
2020-06-30 07:29:37.950	0.0	0.0	0.0	0.25	7.0	65.0	32.111111111111114	12.555555555555555	-86.55555555555556	98839.33333333333	345.0	0.0	0.0	0.0	0.0	149.55555555555554	-284.77777777777777	53373.444444444445	0.0	1.0148231552706823	-2.8176645967695446	0.0	2072.0	2037.3333333333333	2572.0	145.88888888888889	125.44444444444444	144.66666666666666	127.88888888888889	206824028.44444445
2020-06-30 07:29:38.000	0.0	0.0	0.0	0.25	7.0	65.0	33.111111111111114	10.0	-86.22222222222223	98842.0	345.0	0.0	0.0	0.0	0.0	184.77777777777777	-377.44444444444446	53585.0	0.0	-1.6967561062839296	-2.3383633295694985	0.0	2061.3333333333335	2042.6666666666667	2577.3333333333335	154.11111111111111	124.11111111111111	153.66666666666666	127.66666666666667	206875711.55555555
2020-06-30 07:29:38.050	0.0	0.0	0.0	0.25	7.0	65.0	31.11111111111111	11.333333333333334	-85.77777777777777	98841.0	345.0	0.0	0.0	0.0	0.0	157.66666666666666	-361.0	53675.22222222222	0.0	-4.1747843689388695	-1.8191898531383939	0.0	2063.5555555555557	2031.111111111111	2576.8888888888887	152.77777777777777	134.66666666666666	151.11111111111111	137.44444444444446	206925801.0
2020-06-30 07:29:38.100	0.0	0.0	0.0	0.25	7.0	65.0	29.2	12.0	-86.4	98847.2	345.0	0.0	0.0	0.0	0.0	200.3	-368.4	53849.8	0.0	-2.9004695892333983	-2.3481005907058714	0.0	2073.6	2041.6	2596.0	160.8	134.0	160.8	136.1	206976061.6
2020-06-30 07:29:38.150	0.0	0.0	0.0	0.25	7.0	65.0	31.666666666666668	13.0	-86.77777777777777	98844.66666666667	345.0	0.0	0.0	0.0	0.0	228.33333333333334	-396.77777777777777	54023.333333333336	0.0	-2.5441307889090643	-2.120975719557868	0.0	2065.777777777778	2041.7777777777778	2572.4444444444443	169.88888888888889	132.0	170.0	135.88888888888889	207025902.1111111
2020-06-30 07:29:38.200	0.0	0.0	0.0	0.25	7.0	65.0	30.3	11.9	-85.1	98841.5	345.0	0.0	0.0	0.0	0.0	242.5	-380.9	54220.9	0.0	-4.045874238014221	-4.293687129020691	0.0	2059.2	2050.4	2582.8	169.2	142.4	167.3	144.6	207076253.6
2020-06-30 07:29:38.250	0.0	0.0	0.0	0.25	7.0	65.0	31.5	10.9	-85.9	98845.7	345.4	0.0	0.0	0.0	0.0	179.7	-515.3	54318.8	0.0	-2.4161099195480347	-7.394837141036987	0.0	2076.8	2060.0	2572.0	174.5	143.8	171.9	149.4	207126247.7
2020-06-30 07:29:38.300	0.0	0.0	0.0	0.25	7.0	65.0	33.375	11.375	-86.125	98845.25	345.25	0.0	0.0	0.0	0.0	333.5	-506.75	54471.75	0.0	-2.339801147580147	-9.900840044021606	0.0	2069.0	2050.5	2600.0	179.625	146.75	178.125	152.0	207176940.5
2020-06-30 07:29:38.350	0.0	0.0	0.0	0.25	7.0	65.0	32.625	10.375	-87.875	98847.5	345.625	0.0	0.0	0.0	0.0	263.5	-746.375	54385.625	0.0	-3.3672679662704468	-10.898224592208862	0.0	2066.5	2068.0	2596.5	175.0	159.125	168.125	168.0	207223235.5
2020-06-30 07:29:38.400	0.0	0.0	0.0	0.25	7.0	65.0	33.0	10.25	-86.75	98849.25	345.625	0.0	0.0	0.0	0.0	158.125	-1031.75	54182.875	0.0	-3.4773092567920685	-13.476606726646423	0.0	2069.5	2055.5	2611.5	176.75	167.25	168.125	173.75	207268279.5
2020-06-30 07:29:38.450	0.0	0.0	0.0	0.25	7.0	65.0	33.285714285714285	9.571428571428571	-86.14285714285714	98838.71428571429	345.57142857142856	0.0	0.0	0.0	0.0	-147.0	-1490.857142857143	53848.28571428572	0.0	-0.8434673111353602	-14.754056658063616	0.0	2033.142857142857	2058.8571428571427	2638.285714285714	182.85714285714286	174.42857142857142	168.57142857142858	178.71428571428572	207329654.7142857
2020-06-30 07:29:38.500	0.0	0.0	0.0	0.25	7.0	65.0	35.875	8.875	-85.125	98844.75	345.875	0.0	0.0	0.0	0.0	-731.125	-1555.25	53525.0	0.0	2.1113416999578476	-16.27343261241913	0.0	2097.5	2059.5	2650.5	180.125	188.875	165.125	184.375	207377753.75
2020-06-30 07:29:38.550	0.0	0.0	0.0	0.25	7.0	65.0	35.2	6.0	-85.2	98834.6	345.8	0.0	0.0	0.0	0.0	-1271.2	-1242.7	53323.3	0.0	5.380542731285095	-12.205663394927978	0.0	2072.4	2035.6	2654.0	185.7	185.0	173.8	177.8	207426537.6
2020-06-30 07:29:38.600	0.0	0.0	0.0	0.25	7.0	65.0	31.8	5.0	-86.8	98829.5	346.0	0.0	0.0	0.0	0.0	-1518.5	-811.1	53291.5	0.0	8.43109426498413	-4.003289710357786	0.0	2071.2	2026.4	2626.0	191.1	180.4	183.8	171.2	207476574.1
2020-06-30 07:29:38.650	0.0	0.0	0.0	0.25	7.0	65.0	34.75	6.0	-85.75	98831.75	345.75	0.0	0.0	0.0	0.0	-1705.875	-641.375	53323.625	0.0	11.674105405807495	-0.221556281670928	0.0	2062.0	2027.5	2610.5	193.625	181.125	183.0	172.125	207521621.25
2020-06-30 07:29:38.700	0.0	0.0	0.0	0.25	7.0	65.0	32.09090909090909	2.090909090909091	-84.0909090909091	98833.36363636363	346.0	0.0	0.0	0.0	0.0	-1885.1818181818182	-433.54545454545456	53325.90909090909	0.0	16.057287909767844	1.637750043110414	0.0	2079.2727272727275	2030.1818181818182	2604.7272727272725	192.54545454545453	184.0909090909091	181.72727272727272	175.72727272727272	207573757.54545453
2020-06-30 07:29:38.750	0.0	0.0	0.0	0.25	7.0	65.0	33.7	3.1	-86.3	98834.9	346.0	0.0	0.0	0.0	0.0	-2072.6	-461.7	53323.3	0.0	17.54908676147461	-0.07043453622609377	0.0	2072.4	2031.6	2588.4	197.4	183.9	183.7	173.4	207626696.3
2020-06-30 07:29:38.800	0.0	0.0	0.0	0.25	7.0	65.0	33.6	3.2	-83.8	98830.8	346.0	0.0	0.0	0.0	0.0	-2381.7	-586.5	53330.3	0.0	21.17886390686035	0.5714135356247425	0.0	2084.8	2032.0	2597.2	199.3	186.2	179.4	177.6	207676793.9
2020-06-30 07:29:38.850	0.0	0.0	0.0	0.25	7.0	65.0	38.7	1.3	-85.5	98833.8	346.0	0.0	0.0	0.0	0.0	-2534.6	-909.0	53285.1	0.0	24.46654987335205	-3.816495251655579	0.0	2078.0	2041.6	2598.8	198.9	185.8	181.5	180.1	207726809.2
2020-06-30 07:29:38.900	0.0	0.0	0.0	0.25	7.0	65.0	36.25	0.5	-84.75	98827.375	346.0	0.0	0.0	0.0	0.0	-2287.5	-1098.875	53327.375	0.0	22.373637676239014	-4.9967575669288635	0.0	2072.0	2035.0	2593.5	201.375	180.625	187.75	180.75	207777522.625
2020-06-30 07:29:38.950	0.0	0.0	0.0	0.25	7.0	65.0	36.888888888888886	2.6666666666666665	-84.0	98830.44444444444	346.0	0.0	0.0	0.0	0.0	-1897.6666666666667	-1386.3333333333333	53388.666666666664	0.0	20.050957997639973	-6.797355757819282	0.0	2078.222222222222	2034.2222222222222	2592.4444444444443	203.0	177.88888888888889	189.55555555555554	183.66666666666666	207824404.66666666
2020-06-30 07:29:39.000	0.0	0.0	0.0	0.25	7.0	65.0	39.2	2.4	-82.0	98828.6	346.0	0.0	0.0	0.0	0.0	-1496.9	-1685.1	53450.0	0.0	16.623516082763672	-10.426509666442872	0.0	2071.2	2042.4	2584.8	202.9	178.9	190.5	185.3	207872018.0
2020-06-30 07:29:39.050	0.0	0.0	0.0	0.25	7.0	65.0	38.333333333333336	4.333333333333333	-83.44444444444444	98829.55555555556	346.0	0.0	0.0	0.0	0.0	-947.0	-1687.3333333333333	53536.22222222222	0.0	11.593876838684082	-11.838186581929525	0.0	2074.222222222222	2037.3333333333333	2565.3333333333335	204.11111111111111	175.44444444444446	198.77777777777777	183.66666666666666	207924488.7777778
2020-06-30 07:29:39.100	0.0	0.0	0.0	0.25	7.0	65.0	37.111111111111114	3.5555555555555554	-82.88888888888889	98825.11111111111	346.0	0.0	0.0	0.0	0.0	-398.44444444444446	-1631.7777777777778	53580.0	0.0	6.762297524346246	-12.670893139309353	0.0	2085.3333333333335	2036.4444444444443	2574.6666666666665	199.22222222222223	180.0	197.11111111111111	190.22222222222223	207973425.44444445
2020-06-30 07:29:39.150	0.0	0.0	0.0	0.25	7.0	65.0	34.22222222222222	4.888888888888889	-84.66666666666667	98825.44444444444	346.0	4.900661386070876e-05	-82.08513556586371	0.0	0.0	227.55555555555554	-1435.4444444444443	86589.77777777778	0.0	1.8755311883158154	-11.846642600165474	0.0	2064.4444444444443	2036.4444444444443	2570.6666666666665	199.33333333333334	180.11111111111111	199.11111111111111	191.55555555555554	208024616.8888889
2020-06-30 07:29:39.200	0.0	0.0	0.0	0.25	7.0	65.0	36.54545454545455	4.909090909090909	-82.18181818181819	98828.54545454546	346.0	0.00021539701794443482	-36.707545193758875	0.0	0.0	264.27272727272725	-1359.5454545454545	113049.09090909091	213.45454545454547	21.143721374598417	-33.546376661820844	0.0	2077.4545454545455	2036.0	2581.818181818182	218.1818181818182	193.0909090909091	209.27272727272728	196.72727272727272	208074701.0
2020-06-30 07:29:39.250	0.0	0.0	0.0	0.25	7.0	65.0	38.44444444444444	2.4444444444444446	-82.22222222222223	98826.11111111111	346.0	0.0005515997731385545	107.08744812011719	0.0	0.0	-85.55555555555556	-1197.7777777777778	113108.44444444444	271.77777777777777	126.44863976372613	-133.90142907036676	0.0	2075.1111111111113	2033.7777777777778	2702.222222222222	250.66666666666666	222.0	228.77777777777777	223.0	208124840.2222222
2020-06-30 07:29:39.300	0.0	0.0	0.0	0.25	7.0	65.0	36.2	-1.0	-81.0	98822.3	346.0	0.0006561087298905477	107.35258331298829	0.0	0.0	-30.5	-834.1	113160.5	286.1	158.26481018066406	-186.56736602783204	0.0	2072.0	2036.4	2739.2	251.7	225.6	232.2	229.1	208172304.8
2020-06-30 07:29:39.350	0.0	0.0	0.0	0.25	7.0	65.0	36.0	1.0	-82.66666666666667	98830.33333333333	346.0	0.0016497198278860499	77.13018544514973	0.0	0.0	1203.1666666666667	896.3333333333334	113341.33333333333	357.6666666666667	121.16473770141602	-250.75118509928384	0.0	2080.6666666666665	2026.6666666666667	2677.3333333333335	229.5	203.33333333333334	224.33333333333334	210.5	208284850.66666666
2020-06-30 07:29:39.400	0.0	0.0	0.0	0.25	7.0	65.0	36.0	1.0	-82.66666666666667	98830.33333333333	346.0	0.0016497198278860499	77.13018544514973	0.0	0.0	1203.1666666666667	896.3333333333334	113341.33333333333	357.6666666666667	121.16473770141602	-250.75118509928384	0.0	2080.6666666666665	2026.6666666666667	2677.3333333333335	229.5	203.33333333333334	224.33333333333334	210.5	208284850.66666666
2020-06-30 07:29:39.450	0.0	0.0	0.0	0.25	7.0	65.0	36.0	1.0	-82.66666666666667	98830.33333333333	346.0	0.0016497198278860499	77.13018544514973	0.0	0.0	1203.1666666666667	896.3333333333334	113341.33333333333	357.6666666666667	121.16473770141602	-250.75118509928384	0.0	2080.6666666666665	2026.6666666666667	2677.3333333333335	229.5	203.33333333333334	224.33333333333334	210.5	208284850.66666666
2020-06-30 07:29:39.500	0.0	0.0	0.0	0.25	7.0	65.0	27.0	9.0	-85.0	98828.0	346.0	0.0021014207741245627	81.40615463256836	0.0	0.0	1970.5	1939.5	113540.0	409.0	96.34744262695312	-245.53267669677734	0.0	2080.0	2034.0	2616.0	221.5	187.5	222.0	196.0	208352569.0
2020-06-30 07:29:39.550	0.0	0.0	0.0	0.25	7.0	65.0	33.333333333333336	6.666666666666667	-85.66666666666667	98824.0	346.0	0.0037852312282969556	94.1938247680664	0.0	0.0	2278.0	2429.1666666666665	113614.5	508.8333333333333	180.16218948364258	-185.88133748372397	0.0	2073.3333333333335	2032.0	2569.3333333333335	209.5	185.16666666666666	204.0	186.83333333333334	208452595.66666666
2020-06-30 07:29:39.600	0.0	0.0	0.0	0.25	7.0	65.0	33.333333333333336	6.666666666666667	-85.66666666666667	98824.0	346.0	0.0037852312282969556	94.1938247680664	0.0	0.0	2278.0	2429.1666666666665	113614.5	508.8333333333333	180.16218948364258	-185.88133748372397	0.0	2073.3333333333335	2032.0	2569.3333333333335	209.5	185.16666666666666	204.0	186.83333333333334	208452595.66666666
2020-06-30 07:29:39.650	0.0	0.0	0.0	0.25	7.0	65.0	35.0	3.0	-87.0	98826.0	346.0	0.00420336751267314	99.26290130615234	0.0	0.0	2481.0	2610.0	113685.0	559.0	216.88487243652344	-150.7351531982422	0.0	2100.0	2020.0	2532.0	208.0	184.0	203.0	184.0	208505401.0
2020-06-30 07:29:39.700	0.0	0.0	0.0	0.25	7.0	65.0	38.57142857142857	8.571428571428571	-86.85714285714286	98825.85714285714	346.0	0.004604505108935493	104.93562425885882	0.0	0.0	3528.5714285714284	1811.4285714285713	113747.57142857143	654.0	157.66439165387834	-95.05593981061664	0.0	2061.714285714286	2046.2857142857142	2425.1428571428573	157.42857142857142	133.0	155.28571428571428	143.85714285714286	208615334.0
2020-06-30 07:29:39.750	0.0	0.0	0.0	0.25	7.0	65.0	38.57142857142857	8.571428571428571	-86.85714285714286	98825.85714285714	346.0	0.004604505108935493	104.93562425885882	0.0	0.0	3528.5714285714284	1811.4285714285713	113747.57142857143	654.0	157.66439165387834	-95.05593981061664	0.0	2061.714285714286	2046.2857142857142	2425.1428571428573	157.42857142857142	133.0	155.28571428571428	143.85714285714286	208615334.0
2020-06-30 07:29:39.800	0.0	0.0	0.0	0.25	7.0	65.0	39.0	11.0	-83.0	98817.0	346.0	0.0047934348694980145	110.6801986694336	0.0	0.0	3823.5	1562.0	113756.0	684.5	150.13607788085938	-72.78472518920898	0.0	2048.0	2006.0	2378.0	145.5	119.5	146.5	133.0	208652648.5
2020-06-30 07:29:39.850	0.0	0.0	0.0	0.25	7.0	65.0	32.0	12.0	-84.0	98826.0	346.0	0.004618801642209292	110.57585906982422	0.0	0.0	3867.0	1480.0	113769.0	689.0	150.68910217285156	-62.21239852905274	0.0	2088.0	2032.0	2392.0	153.0	123.0	150.0	135.0	208665527.0
2020-06-30 07:29:39.900	0.0	0.0	0.0	0.25	7.0	65.0	32.0	12.0	-84.0	98826.0	346.0	0.004618801642209292	110.57585906982422	0.0	0.0	3867.0	1480.0	113769.0	689.0	150.68910217285156	-62.21239852905274	0.0	2088.0	2032.0	2392.0	153.0	123.0	150.0	135.0	208665527.0
2020-06-30 07:29:39.950	0.0	0.0	0.0	0.25	7.0	65.0	36.0	8.0	-84.0	98823.0	346.0	0.0045798495411872855	110.98175048828124	0.0	0.0	3855.0	1459.0	113740.0	692.0	148.06919860839844	-60.298423767089844	0.0	2044.0	1988.0	2388.0	150.0	128.0	147.0	135.0	208670166.0
2020-06-30 07:29:40.000	0.0	0.0	0.0	0.25	7.0	65.0	39.5	8.25	-86.75	98819.875	346.0	0.00447887578047812	147.93167114257812	0.0	0.0	2900.0	-119.25	113547.625	742.875	47.466190814971924	52.49020767211914	0.0	2041.0	2044.0	2472.5	177.25	153.125	168.125	161.5	208862960.25
2020-06-30 07:29:40.050	0.0	0.0	0.0	0.25	7.0	65.0	39.5	8.25	-86.75	98819.875	346.0	0.00447887578047812	147.93167114257812	0.0	0.0	2900.0	-119.25	113547.625	742.875	47.466190814971924	52.49020767211914	0.0	2041.0	2044.0	2472.5	177.25	153.125	168.125	161.5	208862960.25
2020-06-30 07:29:40.100	0.0	0.0	0.0	0.25	7.0	65.0	39.5	8.25	-86.75	98819.875	346.0	0.00447887578047812	147.93167114257812	0.0	0.0	2900.0	-119.25	113547.625	742.875	47.466190814971924	52.49020767211914	0.0	2041.0	2044.0	2472.5	177.25	153.125	168.125	161.5	208862960.25
2020-06-30 07:29:40.150	0.0	0.0	0.0	0.25	7.0	65.0	39.5	8.25	-86.75	98819.875	346.0	0.00447887578047812	147.93167114257812	0.0	0.0	2900.0	-119.25	113547.625	742.875	47.466190814971924	52.49020767211914	0.0	2041.0	2044.0	2472.5	177.25	153.125	168.125	161.5	208862960.25
2020-06-30 07:29:40.200	0.0	0.0	0.0	0.25	7.0	65.0	39.5	8.25	-86.75	98819.875	346.0	0.00447887578047812	147.93167114257812	0.0	0.0	2900.0	-119.25	113547.625	742.875	47.466190814971924	52.49020767211914	0.0	2041.0	2044.0	2472.5	177.25	153.125	168.125	161.5	208862960.25
2020-06-30 07:29:40.250	0.0	0.0	0.0	0.25	7.0	65.0	47.0	3.0	-87.0	98826.0	346.0	0.006614357233047485	167.10601806640625	0.0	0.0	793.0	-2128.0	113405.0	734.0	-6.454139709472656	79.41978454589844	0.0	1972.0	2028.0	2564.0	205.0	181.0	183.0	186.0	209085632.0
2020-06-30 07:29:40.300	0.0	0.0	0.0	0.25	7.0	65.0	47.0	3.0	-87.0	98826.0	346.0	0.006614357233047485	167.10601806640625	0.0	0.0	793.0	-2128.0	113405.0	734.0	-6.454139709472656	79.41978454589844	0.0	1972.0	2028.0	2564.0	205.0	181.0	183.0	186.0	209085632.0
2020-06-30 07:29:40.350	0.0	0.0	0.0	0.25	7.0	65.0	43.75	0.75	-84.25	98824.25	346.0	0.008259550901129842	165.11022567749023	0.0	0.0	200.5	-2522.75	113417.0	712.5	-14.433124303817749	56.97056293487549	0.0	2108.0	2022.0	2597.0	210.75	185.75	189.75	192.5	209210876.0
2020-06-30 07:29:40.400	0.0	0.0	0.0	0.25	7.0	65.0	44.8	2.0	-83.6	98819.8	346.0	0.008846105448901654	161.6521484375	0.0	0.0	25.4	-2508.2	113414.4	704.4	-6.2233348965644835	27.30766010284424	0.0	2072.0	2036.8	2605.6	214.4	186.0	194.0	192.2	209256762.0
2020-06-30 07:29:40.450	0.0	0.0	0.0	0.25	7.0	65.0	44.125	0.375	-85.625	98822.125	346.0	0.009398505673743784	161.84451293945312	0.0	0.0	29.5	-2158.0	113441.625	697.375	-13.006205379962921	1.1337109208106995	0.0	2075.0	2050.0	2602.0	212.5	183.75	196.0	190.0	209325317.0
2020-06-30 07:29:40.500	0.0	0.0	0.0	0.25	7.0	65.0	42.90909090909091	2.1818181818181817	-85.63636363636364	98820.54545454546	346.0	0.009923423640429974	159.9048808704723	0.0	0.0	2.3636363636363638	-1744.090909090909	113506.36363636363	695.5454545454545	-7.860700019381263	-14.331766128540039	0.0	2075.6363636363635	2039.2727272727273	2598.909090909091	212.72727272727272	179.45454545454547	198.9090909090909	182.36363636363637	209375953.9090909
2020-06-30 07:29:40.550	0.0	0.0	0.0	0.25	7.0	65.0	41.333333333333336	1.7777777777777777	-83.77777777777777	98817.33333333333	346.0	0.010883597760564752	160.90597534179688	0.0	0.0	169.0	-1287.111111111111	113566.33333333333	692.3333333333334	-0.6781465998954244	-12.637806150648329	0.0	2081.777777777778	2039.111111111111	2602.6666666666665	208.22222222222223	182.88888888888889	196.88888888888889	186.66666666666666	209425923.33333334
2020-06-30 07:29:40.600	0.0	0.0	0.0	0.25	7.0	65.0	42.0	1.5555555555555556	-85.11111111111111	98814.0	346.0	0.011216436409287982	161.00220574273004	0.0	0.0	249.11111111111111	-1082.2222222222222	113450.55555555556	689.1111111111111	-4.204184108310276	-14.901144875420464	0.0	2070.6666666666665	2033.7777777777778	2600.8888888888887	206.22222222222223	186.88888888888889	192.11111111111111	191.33333333333334	209478223.44444445
2020-06-30 07:29:40.650	0.0	0.0	0.0	0.25	7.0	65.0	42.111111111111114	1.0	-84.11111111111111	98820.66666666667	346.0	0.011431012820038531	160.8787638346354	0.0	0.0	165.11111111111111	-965.7777777777778	113440.33333333333	685.1111111111111	-1.2351976500617132	-31.729969660441082	0.0	2071.5555555555557	2035.111111111111	2591.5555555555557	211.66666666666666	185.11111111111111	195.55555555555554	188.11111111111111	209526078.44444445
2020-06-30 07:29:40.700	0.0	0.0	0.0	0.25	7.0	65.0	40.125	2.375	-84.625	98823.75	346.0	0.011915473849512637	159.60211181640625	0.0	0.0	100.0	-843.0	113396.625	684.0	13.632334113121033	-45.98720932006836	0.0	2072.0	2039.5	2595.0	209.5	186.0	192.625	188.625	209572337.75
2020-06-30 07:29:40.750	0.0	0.0	0.0	0.25	7.0	65.0	42.2	2.2	-84.2	98823.3	346.0	0.012547804974019527	155.61368255615236	0.0	0.0	118.5	-694.6	113314.7	683.7	26.822361564636232	-73.19254684448242	0.0	2085.6	2037.2	2598.8	207.1	186.0	189.6	189.9	209623641.4
2020-06-30 07:29:40.800	0.0	0.0	0.0	0.25	7.0	65.0	42.22222222222222	2.2222222222222223	-84.22222222222223	98815.22222222222	346.0	0.013489030715492036	154.7120564778646	0.0	0.0	183.66666666666666	-358.44444444444446	113270.66666666667	684.6666666666666	31.684623294406467	-80.94377899169922	0.0	2070.222222222222	2033.3333333333333	2586.6666666666665	206.44444444444446	184.22222222222223	191.77777777777777	184.88888888888889	209677811.7777778
2020-06-30 07:29:40.850	0.0	0.0	0.0	0.25	7.0	65.0	42.22222222222222	2.2222222222222223	-83.11111111111111	98814.55555555556	346.0	0.014513278483516641	153.36023457845053	0.0	0.0	326.1111111111111	-55.22222222222222	113275.33333333333	686.6666666666666	36.66755294799805	-71.24586402045355	0.0	2084.8888888888887	2036.888888888889	2590.6666666666665	204.22222222222223	181.33333333333334	191.66666666666666	184.11111111111111	209726229.7777778
2020-06-30 07:29:40.900	0.0	0.0	0.0	0.25	7.0	65.0	40.77777777777778	1.4444444444444444	-84.11111111111111	98815.66666666667	346.3333333333333	0.014888959833317332	150.4042273627387	0.0	0.0	662.1111111111111	151.66666666666666	113265.11111111111	689.6666666666666	35.06463962131076	-81.07878706190321	0.0	2089.3333333333335	2035.5555555555557	2578.222222222222	201.77777777777777	178.66666666666666	191.88888888888889	183.66666666666666	209775339.44444445
2020-06-30 07:29:40.950	0.0	0.0	0.0	0.25	7.0	65.0	40.333333333333336	2.111111111111111	-87.0	98820.0	346.1111111111111	0.01544601283967495	148.79002380371094	0.0	0.0	853.0	338.22222222222223	113257.88888888889	691.7777777777778	31.73519304063585	-87.94537099202473	0.0	2084.4444444444443	2043.111111111111	2572.8888888888887	201.55555555555554	179.33333333333334	190.22222222222223	183.55555555555554	209821882.1111111
2020-06-30 07:29:41.000	0.0	0.0	0.0	0.25	7.0	65.0	40.0	2.3636363636363638	-86.72727272727273	98822.90909090909	346.54545454545456	0.017013018442825836	148.7108514959162	0.0	0.0	1014.2727272727273	582.2727272727273	113279.36363636363	696.0	40.515948208895594	-67.3506754094904	0.0	2083.6363636363635	2041.4545454545455	2578.909090909091	199.0909090909091	178.72727272727272	190.36363636363637	180.0909090909091	209876328.36363637
2020-06-30 07:29:41.050	0.0	0.0	0.0	0.25	7.0	65.0	38.857142857142854	2.2857142857142856	-86.0	98818.28571428571	346.2857142857143	0.018288081511855125	149.27081516810827	0.0	0.0	1088.4285714285713	589.4285714285714	113231.85714285714	695.7142857142857	35.102669852120535	-31.344519751412527	0.0	2071.4285714285716	2034.2857142857142	2574.8571428571427	200.71428571428572	181.71428571428572	189.0	185.14285714285714	209923574.85714287
2020-06-30 07:29:41.100	0.0	0.0	0.0	0.25	7.0	65.0	38.54545454545455	4.7272727272727275	-86.9090909090909	98821.0	346.6363636363636	0.01881380413066257	146.05128617720172	0.0	0.0	1050.8181818181818	385.3636363636364	113185.09090909091	696.3636363636364	36.63194274902344	-38.85737609863281	0.0	2085.4545454545455	2036.7272727272727	2585.090909090909	202.72727272727272	181.0909090909091	189.45454545454547	184.72727272727272	209976009.9090909
2020-06-30 07:29:41.150	0.0	0.0	0.0	0.25	7.0	65.0	39.22222222222222	3.2222222222222223	-86.77777777777777	98820.33333333333	346.44444444444446	0.020180432953768306	146.68139817979602	0.0	0.0	1095.4444444444443	214.11111111111111	113127.33333333333	696.5555555555555	41.42236794365777	-22.372023900349934	0.0	2085.3333333333335	2040.4444444444443	2582.222222222222	201.77777777777777	182.88888888888889	188.44444444444446	187.11111111111111	210026498.8888889
2020-06-30 07:29:41.200	0.0	0.0	0.0	0.25	7.0	65.0	38.888888888888886	2.6666666666666665	-86.22222222222223	98821.66666666667	346.3333333333333	0.021185244330101542	144.2381117078993	0.0	0.0	1030.7777777777778	93.0	113100.55555555556	697.0	38.96335686577691	-26.21558994717068	0.0	2096.0	2038.6666666666667	2588.8888888888887	201.77777777777777	183.66666666666666	188.33333333333334	186.0	210075354.2222222
2020-06-30 07:29:41.250	0.0	0.0	0.0	0.25	7.0	65.0	40.2	3.6	-83.4	98821.2	346.8	0.022262115590274335	143.7197067260742	0.0	0.0	999.6	182.7	113021.0	698.7	30.146074295043945	-24.278517532348634	0.0	2081.6	2038.8	2581.2	199.6	184.5	187.7	184.5	210129134.6
2020-06-30 07:29:41.300	0.0	0.0	0.0	0.25	7.0	65.0	40.44444444444444	3.5555555555555554	-86.22222222222223	98820.55555555556	347.0	0.02370511843926377	143.05588955349393	0.0	0.0	721.0	290.0	112990.33333333333	700.3333333333334	36.01083331637912	-21.39824718899197	0.0	2074.6666666666665	2037.3333333333333	2584.4444444444443	201.33333333333334	184.88888888888889	186.88888888888889	181.66666666666666	210180470.33333334
2020-06-30 07:29:41.350	0.0	0.0	0.0	0.25	7.0	65.0	40.44444444444444	2.6666666666666665	-86.0	98818.22222222222	347.0	0.025236097681853507	142.37089369032117	0.0	0.0	693.6666666666666	369.1111111111111	112931.77777777778	700.4444444444445	45.90304056803385	-15.873933262295193	0.0	2093.3333333333335	2037.3333333333333	2586.222222222222	200.22222222222223	185.44444444444446	188.55555555555554	183.66666666666666	210226707.8888889
2020-06-30 07:29:41.400	0.0	0.0	0.0	0.25	7.0	65.0	39.4	2.6	-85.4	98821.0	347.0	0.026395766250789165	142.6067855834961	0.0	0.0	761.1	505.0	112928.7	701.6	41.434115982055665	-6.116323718428612	0.0	2075.6	2042.4	2583.6	198.3	185.6	188.2	183.9	210274197.0
2020-06-30 07:29:41.450	0.0	0.0	0.0	0.25	7.0	65.0	38.77777777777778	1.0	-86.77777777777777	98821.33333333333	347.0	0.027396036311984062	142.09389411078558	0.0	0.0	907.3333333333334	513.5555555555555	112854.44444444444	703.4444444444445	42.628265380859375	3.164430777231852	0.0	2090.222222222222	2028.4444444444443	2580.4444444444443	197.66666666666666	184.0	188.55555555555554	183.11111111111111	210323960.55555555
2020-06-30 07:29:41.500	0.0	0.0	0.0	0.25	7.0	65.0	37.8	1.4	-86.2	98822.2	347.0	0.028970655426383017	141.92698516845704	0.0	0.0	1001.5	456.8	112900.6	704.1	46.449383926391604	8.171070313453674	0.0	2086.4	2033.2	2585.2	201.4	181.3	190.2	181.7	210374288.5
2020-06-30 07:29:41.550	0.0	0.0	0.0	0.25	7.0	65.0	39.0	6.2	-84.6	98817.0	347.0	0.030045567266643047	141.03997497558595	0.0	0.0	1093.2	225.5	112900.0	704.0	43.16894416809082	9.24328155517578	0.0	2088.0	2040.8	2578.8	201.3	182.8	189.5	184.3	210424383.1
2020-06-30 07:29:41.600	0.0	0.0	0.0	0.25	7.0	65.0	41.875	5.375	-87.125	98817.375	347.0	0.03128836979158223	140.8697052001953	0.0	0.0	1267.625	125.0	112884.0	704.5	41.07210969924927	12.25280910730362	0.0	2081.5	2042.5	2578.0	199.875	181.5	190.25	185.875	210473773.5
2020-06-30 07:29:41.650	0.0	0.0	0.0	0.25	7.0	65.0	40.8	5.6	-84.4	98821.0	347.0	0.03162971064448357	140.63955078125	0.0	0.0	1381.6	-95.7	112865.5	706.8	24.603753089904785	16.564677810668947	0.0	2076.8	2047.6	2569.2	198.6	181.8	186.6	185.2	210524438.1
2020-06-30 07:29:41.700	0.0	0.0	0.0	0.25	7.0	65.0	41.0	5.0	-85.8	98817.9	347.0	0.03315881863236427	138.99282684326172	0.0	0.0	1370.6	-60.3	112796.2	708.8	42.337303924560544	12.439872360229492	0.0	2082.0	2042.4	2580.0	194.1	184.3	185.2	186.5	210574465.5
2020-06-30 07:29:41.750	0.0	0.0	0.0	0.25	7.0	65.0	37.77777777777778	5.555555555555555	-83.77777777777777	98819.0	347.0	0.03395822271704674	139.10396999782986	0.0	0.0	1561.3333333333333	-31.88888888888889	112749.0	710.2222222222222	32.746381759643555	14.442656517028809	0.0	2072.4444444444443	2035.5555555555557	2572.0	197.33333333333334	179.55555555555554	191.0	182.22222222222223	210624731.66666666
2020-06-30 07:29:41.800	0.0	0.0	0.0	0.25	7.0	65.0	37.2	4.8	-84.4	98821.3	347.0	0.0349316194653511	138.91131896972655	0.0	0.0	1674.4	118.9	112715.9	711.0	24.38135471343994	13.653470611572265	0.0	2079.2	2042.4	2575.6	192.3	185.3	185.7	188.3	210674682.1
2020-06-30 07:29:41.850	0.0	0.0	0.0	0.25	7.0	65.0	40.333333333333336	3.6666666666666665	-86.77777777777777	98818.55555555556	347.0	0.03537328541278839	138.1030748155382	0.0	0.0	1583.3333333333333	73.55555555555556	112624.33333333333	713.0	12.55395073360867	10.103831066025627	0.0	2084.8888888888887	2037.3333333333333	2575.5555555555557	195.33333333333334	183.44444444444446	184.77777777777777	185.0	210723242.33333334
2020-06-30 07:29:41.900	0.0	0.0	0.0	0.25	7.0	65.0	38.6	6.6	-83.8	98816.9	347.0	0.03683271892368793	138.04100189208984	0.0	0.0	1326.7	117.2	112722.5	713.9	13.20384111404419	-5.300048232078552	0.0	2087.2	2038.4	2577.6	202.4	177.8	192.3	177.2	210774740.1
2020-06-30 07:29:41.950	0.0	0.0	0.0	0.25	7.0	65.0	40.25	6.5	-83.0	98820.375	347.0	0.037921955808997154	139.83168601989746	0.0	0.0	1193.75	190.125	112746.0	715.125	2.9000378288328648	20.861145853996277	0.0	2081.0	2042.5	2572.5	195.875	184.0	185.625	183.5	210820994.875
2020-06-30 07:29:42.000	0.0	0.0	0.0	0.25	7.0	65.0	39.63636363636363	5.454545454545454	-85.27272727272727	98821.45454545454	347.0	0.03895431045781483	139.66137279163706	0.0	0.0	1092.0	7.7272727272727275	112713.09090909091	715.5454545454545	-3.027561282569712	27.716720581054688	0.0	2074.5454545454545	2037.090909090909	2572.3636363636365	198.45454545454547	180.45454545454547	188.0	184.0909090909091	210877232.72727272
2020-06-30 07:29:42.050	0.0	0.0	0.0	0.25	7.0	65.0	42.375	0.875	-86.125	98821.25	347.0	0.039411571342498064	139.71596908569336	0.0	0.0	1166.5	-243.375	112675.375	716.125	-13.22936224937439	27.319037675857544	0.0	2080.5	2040.0	2571.5	194.875	182.375	185.625	188.125	210925433.625
2020-06-30 07:29:42.100	0.0	0.0	0.0	0.25	7.0	65.0	41.18181818181818	6.090909090909091	-88.0909090909091	98819.18181818182	347.0	0.040806902064518494	140.1307997270064	0.0	0.0	1222.4545454545455	-425.09090909090907	112570.72727272728	716.5454545454545	-14.296903610229492	34.84526374123313	0.0	2091.6363636363635	2037.8181818181818	2576.3636363636365	194.36363636363637	183.45454545454547	184.72727272727272	189.54545454545453	210977358.1818182
2020-06-30 07:29:42.150	0.0	0.0	0.0	0.25	6.142857142857143	65.0	40.714285714285715	5.0	-84.14285714285714	98820.14285714286	347.0	0.04140752553939819	139.63326590401786	0.0	0.0	1239.0	-503.57142857142856	112569.57142857143	715.4285714285714	-17.235110964093888	30.228705542428152	0.0	2074.285714285714	2046.2857142857142	2577.714285714286	196.14285714285714	179.71428571428572	188.14285714285714	183.0	211022386.14285713
2020-06-30 07:29:42.200	0.0	0.0	0.0	0.25	3.1	65.0	42.2	5.8	-83.4	98823.0	347.0	0.04266585409641266	140.11845855712892	0.0	0.0	1117.0	-382.9	112643.7	714.6	-17.957692623138428	27.831148147583008	0.0	2081.6	2034.0	2581.2	156.7	206.3	157.7	210.9	211073937.5
2020-06-30 07:29:42.250	0.0	0.0	0.0	0.25	3.0	65.0	41.6	7.6	-84.0	98826.3	347.0	0.0430289626121521	140.34578552246094	0.0	0.0	915.1	-543.5	113377.0	716.4	-39.23507232666016	19.194187021255495	0.0	2077.2	2034.0	2574.4	170.5	193.7	166.7	200.8	211125026.9
2020-06-30 07:29:42.300	0.0	0.0	0.0	0.25	3.0	65.0	39.333333333333336	0.8888888888888888	-87.11111111111111	98824.22222222222	347.0	0.04458333096570439	140.1929236518012	0.0	0.0	562.1111111111111	-778.8888888888889	114270.33333333333	716.6666666666666	-31.428781297471787	9.879611439175076	0.0	2083.1111111111113	2041.3333333333333	2560.0	179.0	188.55555555555554	171.88888888888889	194.11111111111111	211172481.55555555
2020-06-30 07:29:42.350	0.0	0.0	0.0	0.25	3.0	65.0	41.45454545454545	4.545454545454546	-86.36363636363636	98823.36363636363	347.0	0.04612505334344777	140.17379067160866	0.0	0.0	131.63636363636363	-1087.6363636363637	115268.18181818182	716.4545454545455	-14.398589025844228	13.201502366499467	0.0	2092.7272727272725	2042.5454545454545	2572.0	182.63636363636363	188.63636363636363	170.72727272727272	193.72727272727272	211222597.45454547
2020-06-30 07:29:42.400	0.0	0.0	0.0	0.25	3.0	65.0	42.2	5.4	-83.0	98820.3	347.0	0.047494306415319446	139.20850524902343	0.0	0.0	-95.9	-1367.6	116434.6	715.4	-3.078074502944946	0.6275901198387146	0.0	2084.0	2044.0	2574.4	185.7	184.7	175.3	192.4	211275103.1
2020-06-30 07:29:42.450	0.0	0.0	0.0	0.25	3.0	65.0	42.6	5.4	-87.4	98827.0	347.0	0.04741011299192906	138.73834381103515	0.0	0.0	-257.1	-1554.6	117564.5	712.9	-16.46208267211914	-16.11279411315918	0.0	2074.4	2036.8	2562.4	188.4	185.1	175.8	191.8	211325133.8
2020-06-30 07:29:42.500	0.0	0.0	0.0	0.25	3.0	65.0	41.0	7.0	-84.2	98821.2	347.0	0.0479106605052948	138.44776153564453	0.0	0.0	-560.3	-1578.3	118789.5	711.5	-13.944770765304565	-42.51204643249512	0.0	2087.2	2039.6	2572.8	189.9	186.8	176.0	189.7	211375145.9
2020-06-30 07:29:42.550	0.0	0.0	0.0	0.25	3.0	65.0	43.8	8.6	-86.2	98822.3	347.0	0.04901014193892479	137.97877655029296	0.0	0.0	-719.6	-1684.5	119929.2	709.5	2.725138396024704	-53.55621070861817	0.0	2085.2	2037.6	2572.4	192.1	183.9	178.4	189.9	211425222.2
2020-06-30 07:29:42.600	0.0	0.0	0.0	0.25	3.0	65.0	42.6	8.6	-83.4	98822.0	347.0	0.0498220756649971	138.95394439697264	0.0	0.0	-738.0	-1639.3	121128.0	706.8	2.683362638950348	-62.18064956665039	0.0	2080.0	2041.2	2572.8	190.1	186.4	178.5	191.1	211475274.3
2020-06-30 07:29:42.650	0.0	0.0	0.0	0.25	3.0	65.0	43.2	9.2	-86.0	98820.4	347.0	0.05099457912147045	139.45884552001954	0.0	0.0	-760.5	-1515.9	122360.7	704.7	9.085973739624023	-59.52719841003418	0.0	2080.8	2039.6	2575.6	192.6	185.0	181.0	188.3	211525350.4
2020-06-30 07:29:42.700	0.0	0.0	0.0	0.25	3.0	65.0	40.25	10.25	-85.75	98822.75	347.0	0.05190330417826772	138.8457794189453	0.0	0.0	-709.375	-1410.625	123561.625	701.875	16.74523091316223	-67.45093488693237	0.0	2094.5	2032.0	2578.0	191.375	185.5	180.75	191.25	211575362.625
2020-06-30 07:29:42.750	0.0	0.0	0.0	0.25	3.0	65.0	39.888888888888886	11.666666666666666	-86.77777777777777	98816.0	347.0	0.05256804865267542	138.9427235921224	0.0	0.0	-500.77777777777777	-1290.6666666666667	124725.88888888889	699.1111111111111	19.135208659701878	-70.70349205864801	0.0	2091.1111111111113	2031.111111111111	2578.6666666666665	190.11111111111111	185.0	183.11111111111111	191.88888888888889	211624039.8888889
2020-06-30 07:29:42.800	0.0	0.0	0.0	0.25	3.0	65.0	38.0	13.555555555555555	-86.0	98824.11111111111	347.0	0.05338566046622065	139.97410413953992	0.0	0.0	-298.6666666666667	-1238.0	125959.88888888889	695.6666666666666	15.050121837192112	-64.77931933932834	0.0	2080.4444444444443	2037.7777777777778	2580.0	194.33333333333334	182.33333333333334	184.88888888888889	190.44444444444446	211672942.44444445
2020-06-30 07:29:42.850	0.0	0.0	0.0	0.25	3.0	65.0	38.1	15.9	-86.5	98820.1	347.0	0.05509058646857738	138.85536193847656	0.0	0.0	-150.7	-1238.3	127128.1	692.6	29.998752403259278	-75.23213043212891	0.0	2087.6	2042.8	2592.4	191.5	184.5	184.0	193.7	211720629.4
2020-06-30 07:29:42.900	0.0	0.0	0.0	0.25	3.0	65.0	39.111111111111114	16.88888888888889	-87.33333333333333	98818.77777777778	347.0	0.055626323653592005	139.29287719726562	0.0	0.0	92.55555555555556	-1134.4444444444443	128343.77777777778	689.2222222222222	28.86550627814399	-77.55145263671875	0.0	2085.777777777778	2038.2222222222222	2587.1111111111113	193.55555555555554	182.66666666666666	188.0	190.88888888888889	211769215.44444445
2020-06-30 07:29:42.950	0.0	0.0	0.0	0.25	3.0	65.0	37.09090909090909	18.363636363636363	-86.0	98821.45454545454	347.0	0.056617586450143295	139.6655842174183	0.0	0.0	49.90909090909091	-853.7272727272727	129786.0	685.0	27.381845994429156	-78.70875479958274	0.0	2079.6363636363635	2043.6363636363637	2587.6363636363635	195.36363636363637	185.1818181818182	189.1818181818182	188.0909090909091	211823078.0
2020-06-30 07:29:43.000	0.0	0.0	0.0	0.25	3.0	65.0	32.666666666666664	16.0	-87.11111111111111	98822.88888888889	347.0	0.05833957840998968	139.28746371799045	0.0	0.0	2.5555555555555554	-545.2222222222222	131174.77777777778	681.4444444444445	37.43329323662652	-68.9289173550076	0.0	2096.0	2042.6666666666667	2587.5555555555557	192.33333333333334	187.22222222222223	187.22222222222223	191.55555555555554	211878722.66666666
2020-06-30 07:29:43.050	0.0	0.0	0.0	0.25	3.0	65.0	32.75	20.75	-86.75	98823.25	347.0	0.05930550489574671	138.78400421142578	0.0	0.0	-14.0	-466.375	132442.75	679.0	36.93969774246216	-66.62605094909668	0.0	2076.5	2036.5	2592.0	194.0	186.625	187.125	190.75	211930064.5
2020-06-30 07:29:43.100	0.0	0.0	0.0	0.25	3.0	65.0	31.75	18.25	-84.75	98814.75	347.0	0.060950605664402246	138.4747085571289	0.0	0.0	-80.625	-371.125	133717.875	677.25	47.53256940841675	-75.03121852874756	0.0	2084.5	2043.5	2593.0	195.0	185.125	189.5	188.375	211978271.0
2020-06-30 07:29:43.150	0.0	0.0	0.0	0.25	3.0	65.0	29.0	19.75	-89.0	98818.125	347.0	0.062290484085679054	138.9070053100586	0.0	0.0	-77.25	-203.625	134950.375	676.125	53.403178691864014	-66.65570259094238	0.0	2092.5	2044.0	2585.0	195.125	184.5	191.375	186.375	212024562.25
2020-06-30 07:29:43.200	0.0	0.0	0.0	0.25	3.0	65.0	30.6	22.0	-88.8	98815.5	347.0	0.06316674984991551	139.4862030029297	0.0	0.0	-225.6	-90.7	136198.3	676.4	51.3765365600586	-45.035495376586915	0.0	2072.0	2043.6	2582.0	194.8	186.7	187.1	187.0	212072320.0
2020-06-30 07:29:43.250	0.0	0.0	0.0	0.25	3.0	65.0	31.428571428571427	21.714285714285715	-87.42857142857143	98824.57142857143	347.0	0.06480525540454048	139.22141592843192	0.0	0.0	-415.2857142857143	-143.42857142857142	137663.42857142858	676.0	66.27208873203823	-29.94288090297154	0.0	2064.0	2046.2857142857142	2586.8571428571427	196.85714285714286	184.57142857142858	187.57142857142858	186.85714285714286	212127680.7142857
2020-06-30 07:29:43.300	0.0	0.0	0.0	0.25	3.0	65.0	31.555555555555557	24.22222222222222	-85.33333333333333	98822.11111111111	347.0	0.06700361933973101	139.41315714518228	0.0	0.0	-344.22222222222223	-274.1111111111111	138865.77777777778	675.7777777777778	91.86213090684679	-18.474873860677082	0.0	2086.6666666666665	2045.3333333333333	2599.1111111111113	195.22222222222223	182.44444444444446	188.44444444444446	189.77777777777777	212173447.8888889
2020-06-30 07:29:43.350	0.0	0.0	0.0	0.25	3.0	65.0	29.0	24.25	-87.5	98820.75	347.0	0.06765943206846714	139.46234703063965	0.0	0.0	-35.25	-462.625	140052.125	675.375	92.78738307952881	-10.883174061775208	0.0	2088.0	2042.5	2594.0	196.75	178.5	190.625	189.75	212217235.0
2020-06-30 07:29:43.400	0.0	0.0	0.0	0.25	3.0	65.0	28.8	25.6	-87.8	98824.4	347.2	0.06834772378206252	139.07850799560546	0.0	0.0	228.4	-721.5	141478.2	676.0	78.3436897277832	-11.402966403961182	0.0	2070.0	2048.8	2580.0	196.1	180.1	187.6	191.4	212271010.7
2020-06-30 07:29:43.450	0.0	0.0	0.0	0.25	3.0	65.0	24.8	25.8	-87.2	98820.9	347.0	0.07087643966078758	138.6725830078125	0.0	0.0	182.5	-813.0	142926.1	677.9	104.72225418090821	-22.363142585754396	0.0	2092.4	2044.4	2588.4	198.0	178.9	189.7	186.8	212323641.4
2020-06-30 07:29:43.500	0.0	0.0	0.0	0.25	3.0	65.0	27.0	27.75	-84.0	98820.0	347.0	0.07195428293198347	139.56957626342773	0.0	0.0	301.875	-792.625	144285.75	678.875	109.62410640716553	-16.644188404083252	0.0	2077.0	2045.0	2583.0	195.875	178.5	189.5	188.875	212373012.0
2020-06-30 07:29:43.550	0.0	0.0	0.0	0.25	3.0	65.0	29.0	27.0	-88.14285714285714	98817.85714285714	347.14285714285717	0.07258014913116183	139.66613987513952	0.0	0.0	289.85714285714283	-757.2857142857143	145687.85714285713	680.5714285714286	99.01494816371373	-14.176647594996862	0.0	2086.8571428571427	2048.5714285714284	2579.4285714285716	197.28571428571428	178.42857142857142	189.71428571428572	186.57142857142858	212423631.42857143
2020-06-30 07:29:43.600	0.0	0.0	0.0	0.25	3.0	65.0	24.22222222222222	32.0	-86.88888888888889	98822.44444444444	348.0	0.07364810092581643	140.047610812717	0.0	0.0	298.8888888888889	-649.0	147049.22222222222	682.6666666666666	107.42254214816623	-6.855525347921583	0.0	2080.0	2048.8888888888887	2579.1111111111113	193.88888888888889	180.11111111111111	189.0	188.11111111111111	212473713.7777778
2020-06-30 07:29:43.650	0.0	0.0	0.0	0.25	3.0	65.0	22.666666666666668	31.11111111111111	-90.22222222222223	98823.44444444444	348.0	0.07422339253955418	140.48411899142795	0.0	0.0	354.8888888888889	-501.55555555555554	148328.44444444444	684.0	105.99385070800781	6.591302845213148	0.0	2092.8888888888887	2041.3333333333333	2580.0	194.0	179.66666666666666	189.88888888888889	187.77777777777777	212521514.44444445
2020-06-30 07:29:43.700	0.0	0.0	0.0	0.25	3.0	65.0	20.714285714285715	29.571428571428573	-85.57142857142857	98821.85714285714	347.7142857142857	0.0753661457981382	140.867431640625	0.0	0.0	348.2857142857143	-317.14285714285717	149626.85714285713	685.0	110.14070783342633	14.981999942234584	0.0	2077.714285714286	2052.5714285714284	2584.5714285714284	194.14285714285714	180.85714285714286	190.14285714285714	186.57142857142858	212568829.7142857
2020-06-30 07:29:43.750	0.0	0.0	0.0	0.25	3.0	65.0	22.8	32.2	-87.4	98821.0	347.9	0.07674734368920326	141.4167938232422	0.0	0.0	337.3	-212.2	151011.0	686.4	118.93020858764649	24.560643005371094	0.0	2076.0	2043.6	2581.2	193.6	181.0	189.1	188.2	212620348.7
2020-06-30 07:29:43.800	0.0	0.0	0.0	0.25	3.0	65.0	20.5	32.25	-89.0	98818.75	348.0	0.07848704420030117	141.84685516357422	0.0	0.0	229.5	-269.375	152365.25	687.75	125.00049114227295	31.339831829071045	0.0	2089.5	2061.5	2584.5	194.375	181.375	187.0	188.75	212672057.75
2020-06-30 07:29:43.850	0.0	0.0	0.0	0.25	3.0	65.0	20.181818181818183	34.54545454545455	-86.9090909090909	98817.36363636363	348.0	0.08000822026621211	142.2534609707919	0.0	0.0	320.90909090909093	-300.45454545454544	153768.63636363635	689.8181818181819	135.80036093971947	38.526059584184125	0.0	2073.818181818182	2044.7272727272727	2577.4545454545455	194.27272727272728	178.27272727272728	190.27272727272728	188.27272727272728	212723965.1818182
2020-06-30 07:29:43.900	0.0	0.0	0.0	0.25	3.0	65.0	17.333333333333332	32.22222222222222	-88.66666666666667	98818.66666666667	347.77777777777777	0.08055435452196333	142.43585883246527	0.0	0.0	410.8888888888889	-272.8888888888889	155109.22222222222	692.3333333333334	131.2224409315321	44.71925947401259	0.0	2076.0	2052.8888888888887	2573.777777777778	193.33333333333334	179.44444444444446	190.0	187.22222222222223	212773999.7777778
2020-06-30 07:29:43.950	0.0	0.0	0.0	0.25	3.0	65.0	15.818181818181818	36.0	-88.0	98824.45454545454	348.0	0.08142046156254681	143.68635697798297	0.0	0.0	391.54545454545456	-116.0909090909091	156454.81818181818	694.2727272727273	140.76171597567472	66.07826926491477	0.0	2083.6363636363635	2048.3636363636365	2571.6363636363635	192.1818181818182	181.1818181818182	188.27272727272728	188.0	212824015.72727272
2020-06-30 07:29:44.000	0.0	0.0	0.0	0.25	3.0	65.0	14.0	39.0	-89.5	98821.75	348.0	0.0834503211081028	143.17683792114258	0.0	0.0	258.75	-113.25	157761.125	696.125	154.07655715942383	65.81066465377808	0.0	2067.5	2052.0	2575.5	192.0	183.125	186.375	188.5	212875464.75
2020-06-30 07:29:44.050	0.0	0.0	0.0	0.25	3.0	65.0	12.88888888888889	36.44444444444444	-90.22222222222223	98820.11111111111	348.0	0.08502189897828633	144.1209750705295	0.0	0.0	202.22222222222223	158.55555555555554	159051.88888888888	697.7777777777778	183.6114705403646	68.97247060139973	0.0	2078.222222222222	2048.8888888888887	2586.6666666666665	190.66666666666666	182.33333333333334	191.22222222222223	185.11111111111111	212924098.8888889
2020-06-30 07:29:44.100	0.0	0.0	0.0	0.25	3.0	65.0	12.714285714285714	35.857142857142854	-90.71428571428571	98825.42857142857	348.0	0.0844738238624164	145.10202026367188	0.0	0.0	220.57142857142858	348.42857142857144	160194.85714285713	699.2857142857143	171.4004124232701	98.61864362444196	0.0	2076.5714285714284	2057.1428571428573	2588.5714285714284	188.57142857142858	184.85714285714286	186.42857142857142	190.14285714285714	212969918.0
2020-06-30 07:29:44.150	0.0	0.0	0.0	0.25	3.0	65.0	12.1	37.3	-90.7	98822.8	348.0	0.08566658422350884	144.5045959472656	0.0	0.0	98.9	284.5	161541.0	702.3	169.74679718017578	91.61492156982422	0.0	2074.8	2047.2	2572.0	192.0	182.4	186.4	186.9	213022240.8
2020-06-30 07:29:44.200	0.0	0.0	0.0	0.25	3.0	65.0	11.666666666666666	37.888888888888886	-94.33333333333333	98825.66666666667	348.0	0.08681983831855986	146.38778686523438	0.0	0.0	12.333333333333334	147.77777777777777	162791.66666666666	706.1111111111111	199.63749016655817	124.62957339816623	0.0	2077.777777777778	2052.0	2583.5555555555557	187.44444444444446	184.22222222222223	181.77777777777777	191.88888888888889	213074289.33333334
2020-06-30 07:29:44.250	0.0	0.0	0.0	0.25	3.0	65.0	8.090909090909092	37.90909090909091	-91.72727272727273	98822.09090909091	348.0	0.08731205558234995	146.1654191450639	0.0	0.0	164.0	-63.27272727272727	164023.0909090909	706.5454545454545	196.59056368741122	128.14111744273794	0.0	2080.0	2055.6363636363635	2577.090909090909	190.1818181818182	181.0909090909091	185.54545454545453	191.1818181818182	213124394.8181818
2020-06-30 07:29:44.300	0.0	0.0	0.0	0.25	3.0	65.0	10.6	38.2	-89.4	98820.7	348.0	0.08821978569030761	146.63019561767578	0.0	0.0	283.3	-114.8	165317.9	707.8	196.40687713623046	134.1636474609375	0.0	2069.6	2056.8	2576.0	188.3	183.4	185.0	191.8	213176836.7
2020-06-30 07:29:44.350	0.0	0.0	0.0	0.25	3.0	65.0	8.88888888888889	40.22222222222222	-92.88888888888889	98822.11111111111	348.0	0.08953940123319626	147.48621453179254	0.0	0.0	463.44444444444446	-147.22222222222223	166527.0	711.4444444444445	218.26487731933594	151.5336388481988	0.0	2073.777777777778	2053.3333333333335	2584.0	186.77777777777777	181.22222222222223	185.11111111111111	193.22222222222223	213227097.7777778
2020-06-30 07:29:44.400	0.0	0.0	0.0	0.25	3.0	65.0	7.111111111111111	40.888888888888886	-91.77777777777777	98820.22222222222	348.0	0.09008330851793289	148.14187282986111	0.0	0.0	661.2222222222222	-234.0	167778.22222222222	715.8888888888889	219.11374240451389	163.75892469618054	0.0	2072.0	2054.222222222222	2575.5555555555557	186.22222222222223	180.66666666666666	183.44444444444446	193.11111111111111	213278879.33333334
2020-06-30 07:29:44.450	0.0	0.0	0.0	0.25	3.0	65.0	8.25	42.25	-92.75	98822.875	348.0	0.09105905052274466	148.72912979125977	0.0	0.0	825.375	-348.375	168821.625	719.5	228.13122940063477	167.7802276611328	0.0	2071.0	2052.0	2581.0	186.125	177.125	184.625	193.75	213321952.375
2020-06-30 07:29:44.500	0.0	0.0	0.0	0.25	3.0	65.0	6.8	42.0	-92.2	98825.1	348.0	0.09023904874920845	148.62872314453125	0.0	0.0	984.1	-532.8	170052.7	740.8	211.22386932373047	169.72535705566406	0.0	2062.8	2056.4	2562.0	182.2	172.8	177.0	187.4	213372036.2
2020-06-30 07:29:44.550	0.0	0.0	0.0	0.25	3.0	65.0	3.111111111111111	43.55555555555556	-92.44444444444444	98823.33333333333	348.0	0.09112775739696291	149.51128472222223	0.0	0.0	806.2222222222222	-725.6666666666666	171262.33333333334	745.5555555555555	225.5154012044271	175.05811225043402	0.0	2058.222222222222	2053.3333333333335	2554.6666666666665	182.77777777777777	176.22222222222223	174.22222222222223	190.66666666666666	213423956.55555555
2020-06-30 07:29:44.600	0.0	0.0	0.0	0.25	3.0	65.0	4.625	45.125	-92.875	98818.0	348.0	0.09087566658854485	149.8508586883545	0.0	0.0	556.625	-998.125	172403.375	746.375	226.68909072875977	186.48803329467773	0.0	2071.0	2064.5	2556.5	189.25	174.75	176.0	189.875	213470225.75
2020-06-30 07:29:44.650	0.0	0.0	0.0	0.25	3.0	65.0	6.111111111111111	43.22222222222222	-91.88888888888889	98820.88888888889	348.0	0.09164662162462871	149.96844821506076	0.0	0.0	204.77777777777777	-1503.3333333333333	173571.0	744.5555555555555	234.46954176161023	195.76545206705728	0.0	2055.5555555555557	2056.4444444444443	2562.6666666666665	189.0	180.77777777777777	169.77777777777777	198.11111111111111	213523535.2222222
2020-06-30 07:29:44.700	0.0	0.0	0.0	0.25	3.0	65.0	7.111111111111111	42.44444444444444	-92.0	98821.77777777778	348.0	0.09207815676927567	149.7497066921658	0.0	0.0	79.44444444444444	-1763.0	174836.88888888888	741.2222222222222	249.86155531141492	180.74458482530383	0.0	2068.4444444444443	2060.8888888888887	2566.6666666666665	191.77777777777777	178.44444444444446	179.0	195.55555555555554	213576388.44444445
2020-06-30 07:29:44.750	0.0	0.0	0.0	0.25	3.0	65.0	5.0	44.25	-94.5	98821.375	348.0	0.08998539578169584	150.81638145446777	0.0	0.0	145.125	-1763.75	175946.5	736.375	239.92411041259766	211.04544067382812	0.0	2063.0	2066.0	2567.5	190.25	183.375	177.0	200.0	213626060.0
2020-06-30 07:29:44.800	0.0	0.0	0.0	0.25	3.0	65.0	3.7	46.3	-94.1	98819.4	348.0	0.09211572259664536	150.64906311035156	0.0	0.0	112.6	-1858.6	177000.1	732.3	260.7543121337891	207.62267150878907	0.0	2072.4	2059.6	2580.8	193.0	181.9	178.1	201.8	213672311.0
2020-06-30 07:29:44.850	0.0	0.0	0.0	0.25	3.0	65.0	3.7777777777777777	43.55555555555556	-90.88888888888889	98819.33333333333	348.0	0.09267720248964098	150.18994818793402	0.0	0.0	395.1111111111111	-1957.0	178102.88888888888	727.7777777777778	270.25042046440973	187.05105929904514	0.0	2067.5555555555557	2064.0	2580.8888888888887	192.33333333333334	180.22222222222223	182.11111111111111	203.0	213720950.1111111
2020-06-30 07:29:44.900	0.0	0.0	0.0	0.25	3.0	65.0	3.4444444444444446	44.77777777777778	-90.55555555555556	98820.66666666667	348.0	0.0920468204551273	150.7721405029297	0.0	0.0	623.8888888888889	-2099.1111111111113	179185.88888888888	725.0	258.1501244439019	189.964599609375	0.0	2074.222222222222	2053.3333333333335	2578.222222222222	191.0	182.44444444444446	176.44444444444446	208.22222222222223	213771019.2222222
2020-06-30 07:29:44.950	0.0	0.0	0.0	0.25	3.0	65.0	5.666666666666667	47.22222222222222	-94.33333333333333	98822.0	348.0	0.09348562111457188	150.18909708658853	0.0	0.0	698.3333333333334	-2348.3333333333335	-139498.33333333334	720.4444444444445	268.42650349934894	158.69685702853732	0.0	2069.3333333333335	2060.8888888888887	2578.6666666666665	197.11111111111111	178.66666666666666	180.88888888888889	203.33333333333334	213827707.2222222
2020-06-30 07:29:45.000	0.0	0.0	0.0	0.25	3.0	65.0	1.1428571428571428	46.57142857142857	-96.0	98818.57142857143	348.0	0.09398473905665534	150.85301644461495	0.0	0.0	621.1428571428571	-2445.0	-178438.7142857143	716.7142857142857	279.1801278250558	149.21873692103796	0.0	2060.0	2058.285714285714	2584.5714285714284	198.57142857142858	179.14285714285714	181.28571428571428	203.42857142857142	213871394.0
2020-06-30 07:29:45.050	0.0	0.0	0.0	0.25	3.0	65.0	3.6	44.8	-90.8	98825.2	348.0	0.09528804570436478	150.87010803222657	0.0	0.0	572.8	-2484.0	-177511.0	714.2	292.5751892089844	139.21486206054686	0.0	2078.4	2060.8	2590.4	197.4	180.2	180.2	204.8	213910058.0
2020-06-30 07:29:45.100	0.0	0.0	0.0	0.0	6.125	65.0	1.875	48.625	-93.125	98818.25	348.0	0.09838307835161686	150.84971237182617	0.0	0.0	592.125	-2476.75	-175911.875	710.5	317.94953536987305	92.36975383758545	0.0	2080.5	2061.0	2595.0	209.0	170.25	197.625	185.5	213975810.5
2020-06-30 07:29:45.150	0.0	0.0	0.0	0.0	8.0	65.0	-2.2222222222222223	48.888888888888886	-93.77777777777777	98819.55555555556	348.0	0.09750255280070835	151.99329121907553	0.0	0.0	824.0	-2371.4444444444443	-174955.0	708.1111111111111	314.5880126953125	96.64246622721355	0.0	2059.5555555555557	2055.1111111111113	2592.8888888888887	207.77777777777777	171.77777777777777	195.44444444444446	187.33333333333334	214020690.55555555
2020-06-30 07:29:45.200	0.0	0.0	0.0	0.0	8.0	65.0	-1.2222222222222223	50.77777777777778	-94.33333333333333	98817.33333333333	348.0	0.09885794917742412	151.91871812608508	0.0	0.0	1405.888888888889	-2767.8888888888887	-174147.88888888888	706.4444444444445	314.1552971733941	101.37816958957248	0.0	2060.8888888888887	2059.5555555555557	2585.3333333333335	208.22222222222223	165.88888888888889	196.0	191.55555555555554	214072363.44444445
2020-06-30 07:29:45.250	0.0	0.0	0.0	0.0	8.0	65.0	-0.9090909090909091	52.72727272727273	-89.63636363636364	98820.63636363637	348.0	0.10021402754566887	151.19588401100853	0.0	0.0	2131.7272727272725	-3044.0	-173449.18181818182	703.6363636363636	298.81365689364344	71.23342201926492	0.0	2065.090909090909	2063.6363636363635	2579.2727272727275	206.1818181818182	167.0	195.1818181818182	195.0909090909091	214125246.45454547
2020-06-30 07:29:45.300	0.0	0.0	0.0	0.0	8.0	65.0	0.0	54.8	-90.0	98826.1	348.0	0.10164322480559349	151.20305938720702	0.0	0.0	2702.4	-3018.5	-172780.1	701.3	292.1932647705078	60.11440811157227	0.0	2061.2	2060.8	2586.4	209.0	165.2	197.8	191.5	214177739.9
2020-06-30 07:29:45.350	0.0	0.0	0.0	0.0	8.0	65.0	-3.2222222222222223	59.22222222222222	-90.77777777777777	98821.0	348.0	0.10458057042625216	151.56078932020398	0.0	0.0	3011.3333333333335	-2810.222222222222	-172235.11111111112	701.0	299.5308125813802	45.70021014743381	0.0	2076.0	2062.6666666666665	2596.0	207.33333333333334	164.33333333333334	199.55555555555554	190.88888888888889	214225287.2222222
2020-06-30 07:29:45.400	0.0	0.0	0.0	0.0	8.0	65.0	-1.4444444444444444	58.55555555555556	-91.22222222222223	98820.88888888889	348.0	0.10535629424783918	150.6211700439453	0.0	0.0	3232.8888888888887	-2317.222222222222	-171736.77777777778	699.4444444444445	261.5127207438151	23.076839129130047	0.0	2064.4444444444443	2054.6666666666665	2592.0	205.88888888888889	167.66666666666666	199.33333333333334	189.88888888888889	214277092.33333334
2020-06-30 07:29:45.450	0.0	0.0	0.0	0.0	8.0	65.0	-5.444444444444445	59.666666666666664	-91.44444444444444	98821.22222222222	348.0	0.10591270609034432	150.57247246636285	0.0	0.0	3196.6666666666665	-1727.5555555555557	-171303.77777777778	698.2222222222222	228.85262722439236	14.814286867777506	0.0	2068.0	2059.1111111111113	2591.1111111111113	206.11111111111111	169.11111111111111	200.11111111111111	187.66666666666666	214326564.66666666
2020-06-30 07:29:45.500	0.0	0.0	0.0	0.0	8.0	65.0	-5.75	60.25	-88.75	98816.75	348.0	0.10746154375374317	150.7912483215332	0.0	0.0	3059.0	-1088.625	-170959.25	699.0	212.87598419189453	12.273387908935547	0.0	2069.0	2056.5	2592.0	204.125	170.0	200.25	186.25	214375442.0
2020-06-30 07:29:45.550	0.0	0.0	0.0	0.0	5.6	65.0	-7.4	56.4	-90.6	98821.4	348.0	0.10751636773347854	150.88951873779297	0.0	0.0	2979.5	-602.0	-170652.8	699.3	190.1997055053711	19.24690189361572	0.0	2068.0	2053.2	2588.4	204.4	170.6	200.8	185.4	214422973.0
2020-06-30 07:29:45.600	0.0	0.0	0.0	0.0	4.0	65.0	-9.5	56.0	-91.5	98820.0	348.0	0.10726398229598999	151.21171760559082	0.0	0.0	2953.125	-131.75	-170411.625	698.375	170.31098556518555	35.08515977859497	0.0	2064.0	2045.0	2596.0	200.25	174.875	200.375	187.375	214469932.0
2020-06-30 07:29:45.650	0.0	0.0	0.0	0.0	4.0	65.0	-8.7	58.1	-89.7	98821.8	348.0	0.10536756590008736	150.9051483154297	0.0	0.0	3195.4	78.5	-170270.1	698.9	127.12548294067383	62.588513946533205	0.0	2062.4	2049.6	2594.4	196.7	173.8	200.3	191.5	214523098.2
2020-06-30 07:29:45.700	0.0	0.0	0.0	0.0	4.0	65.0	-7.3	59.5	-90.7	98817.7	348.0	0.10456338971853256	150.65398864746095	0.0	0.0	3197.2	39.1	-170179.5	699.8	85.27785797119141	74.69343948364258	0.0	2074.4	2047.2	2583.6	195.2	175.0	198.5	192.4	214575634.3
2020-06-30 07:29:45.750	0.0	0.0	0.0	0.0	4.0	65.0	-8.125	60.125	-90.125	98817.75	348.0	0.10357339959591627	150.8732795715332	0.0	0.0	2931.75	-86.25	-170076.875	700.625	62.3863844871521	92.71236419677734	0.0	2066.0	2055.5	2582.0	198.5	174.5	198.875	189.0	214627551.5
2020-06-30 07:29:45.800	0.0	0.0	0.0	0.0	4.0	65.0	-5.1	59.9	-90.1	98820.6	348.0	0.10330401510000228	151.0044372558594	0.0	0.0	2565.8	-365.1	-170006.2	701.8	54.74397277832031	109.05326309204102	0.0	2065.6	2054.8	2581.6	199.3	174.4	196.1	189.7	214673202.1
2020-06-30 07:29:45.850	0.0	0.0	0.0	0.0	4.0	65.0	-7.111111111111111	60.44444444444444	-89.77777777777777	98817.33333333333	348.0	0.10336124814218944	150.46759711371527	0.0	0.0	2157.8888888888887	-799.5555555555555	-169918.11111111112	703.6666666666666	42.35227245754666	109.2543207804362	0.0	2071.1111111111113	2058.6666666666665	2577.3333333333335	200.88888888888889	173.0	194.66666666666666	189.77777777777777	214720753.55555555
2020-06-30 07:29:45.900	0.0	0.0	0.0	0.0	4.0	65.0	-5.555555555555555	57.111111111111114	-93.33333333333333	98819.11111111111	348.0	0.102879099547863	150.10792032877603	0.0	0.0	1801.3333333333333	-1245.111111111111	-169846.22222222222	707.2222222222222	31.545379426744248	110.83838653564453	0.0	2072.8888888888887	2056.0	2577.777777777778	200.44444444444446	171.88888888888889	192.77777777777777	189.66666666666666	214765871.8888889
2020-06-30 07:29:45.950	0.0	0.0	0.0	0.0	4.0	65.0	-3.7777777777777777	57.111111111111114	-93.11111111111111	98813.22222222222	348.0	0.1028430817855729	149.80521986219617	0.0	0.0	1500.7777777777778	-1786.4444444444443	-169786.88888888888	709.0	22.182487699720596	105.49411349826389	0.0	2069.3333333333335	2057.3333333333335	2581.777777777778	202.0	170.44444444444446	193.0	190.0	214822526.1111111
2020-06-30 07:29:46.000	0.0	0.0	0.0	0.0	4.0	65.0	-3.8181818181818183	55.27272727272727	-88.72727272727273	98815.18181818182	348.0	0.10135131464763121	149.85192732377485	0.0	0.0	1379.5454545454545	-1995.5454545454545	-169605.72727272726	711.0	4.73670477216894	101.71327764337713	0.0	2072.3636363636365	2053.4545454545455	2582.181818181818	203.36363636363637	167.36363636363637	198.45454545454547	186.27272727272728	214875898.36363637
2020-06-30 07:29:46.050	0.0	0.0	0.0	0.0	4.0	65.0	-6.625	59.125	-90.375	98814.5	348.0	0.10069464612752199	150.04959106445312	0.0	0.0	1153.875	-2081.375	-169506.625	712.75	-7.7273281663656235	101.44216632843018	0.0	2074.5	2049.5	2591.0	203.875	168.625	197.0	185.875	214924194.0
2020-06-30 07:29:46.100	0.0	0.0	0.0	0.0	4.0	65.0	-2.6666666666666665	55.77777777777778	-90.0	98816.11111111111	348.0	0.10093446407053205	149.95858595106336	0.0	0.0	1026.3333333333333	-2197.222222222222	-169365.33333333334	713.5555555555555	-4.098007771703932	77.68478902180989	0.0	2092.0	2054.222222222222	2595.1111111111113	205.88888888888889	165.77777777777777	198.55555555555554	185.88888888888889	214972123.44444445
2020-06-30 07:29:46.150	0.0	0.0	0.0	0.0	4.0	65.0	-6.25	55.75	-91.75	98818.75	348.0	0.10035504773259163	150.0935344696045	0.0	0.0	934.375	-2058.375	-169109.5	715.875	-12.835742592811584	61.45005559921265	0.0	2074.5	2064.5	2592.0	207.875	162.75	203.75	180.75	215028537.25
2020-06-30 07:29:46.200	0.0	0.0	0.0	0.0	4.0	65.0	-3.6666666666666665	57.888888888888886	-91.88888888888889	98819.77777777778	348.44444444444446	0.1004401586121983	149.89746263292102	0.0	0.0	904.7777777777778	-1814.7777777777778	-168891.66666666666	718.1111111111111	-17.981630431281197	53.56600655449761	0.0	2077.777777777778	2057.777777777778	2578.222222222222	208.22222222222223	160.77777777777777	206.66666666666666	178.44444444444446	215077148.0
2020-06-30 07:29:46.250	0.0	0.0	0.0	0.0	4.0	65.0	-5.2	56.8	-93.2	98817.3	348.1	0.09853955432772636	149.5062454223633	0.0	0.0	930.9	-1623.2	-168653.7	721.8	-39.378776741027835	65.27465324401855	0.0	2068.4	2053.6	2589.2	206.3	160.4	204.8	180.5	215128686.1
2020-06-30 07:29:46.300	0.0	0.0	0.0	0.0	4.0	65.0	-5.0	57.0	-90.6	98818.7	348.7	0.09814748391509057	148.60807189941406	0.0	0.0	701.1	-1714.7	-168497.4	725.4	-56.389168930053714	63.00138969421387	0.0	2069.2	2054.4	2582.8	209.4	159.6	203.0	178.3	215178676.9
2020-06-30 07:29:46.350	0.0	0.0	0.0	0.0	4.0	65.0	-8.444444444444445	55.55555555555556	-90.44444444444444	98819.88888888889	348.77777777777777	0.09846717864274979	149.1612091064453	0.0	0.0	366.3333333333333	-1918.6666666666667	-168323.0	728.4444444444445	-46.96899668375651	61.6001353793674	0.0	2074.222222222222	2058.222222222222	2574.6666666666665	210.66666666666666	158.77777777777777	202.0	177.77777777777777	215226222.8888889
2020-06-30 07:29:46.400	0.0	0.0	0.0	0.0	4.0	65.0	-5.636363636363637	54.72727272727273	-90.9090909090909	98816.36363636363	348.8181818181818	0.09799708764661443	148.61242259632456	0.0	0.0	113.81818181818181	-2062.909090909091	-168116.0909090909	731.0909090909091	-49.5275070884011	60.589670007879086	0.0	2069.4545454545455	2055.6363636363635	2574.181818181818	212.8181818181818	156.27272727272728	204.0	176.1818181818182	215276280.54545453
2020-06-30 07:29:46.450	0.0	0.0	0.0	0.0	4.0	65.0	-3.0	56.6	-91.8	98813.9	348.5	0.09704893678426743	147.9453323364258	0.0	0.0	-267.8	-2308.4	-167953.0	732.7	-59.91072158813476	68.0094711303711	0.0	2073.2	2058.8	2577.6	214.1	159.1	200.3	176.9	215328850.7
2020-06-30 07:29:46.500	0.0	0.0	0.0	0.0	4.0	65.0	-3.0	54.0	-91.0	98821.375	348.875	0.09867600351572037	147.29677200317383	0.0	0.0	-502.125	-2643.375	-167936.75	735.0	-46.691317081451416	48.95847487449646	0.0	2079.5	2057.5	2582.0	211.125	160.875	194.625	183.5	215374522.5
2020-06-30 07:29:46.550	0.0	0.0	0.0	0.0	4.0	65.0	-4.625	54.125	-89.375	98818.375	348.75	0.09999845363199711	145.90740585327148	0.0	0.0	-700.125	-2948.0	-167850.875	738.375	-53.60874605178833	7.582159757614136	0.0	2073.5	2059.0	2575.5	215.5	156.25	196.5	180.0	215423263.25
2020-06-30 07:29:46.600	0.0	0.0	0.0	0.0	4.0	65.0	-1.75	52.75	-91.0	98820.625	349.0	0.10003733169287443	145.3361053466797	0.0	0.0	-886.625	-2996.875	-167729.25	742.25	-56.18086099624634	-17.65257692337036	0.0	2081.0	2061.5	2569.0	215.75	156.125	196.375	178.375	215473296.75
2020-06-30 07:29:46.650	0.0	0.0	0.0	0.0	4.0	65.0	-2.2	52.6	-93.0	98821.1	349.0	0.10042145252227783	143.71195526123046	0.0	0.0	-1133.4	-2658.2	-167658.9	744.8	-63.47006530761719	-42.42734336853027	0.0	2064.0	2056.4	2565.2	216.1	156.8	198.7	175.0	215529043.0
2020-06-30 07:29:46.700	0.0	0.0	0.0	0.0	4.0	65.0	-4.714285714285714	51.857142857142854	-93.0	98821.71428571429	349.0	0.09977962395974568	142.98575701032365	0.0	0.0	-1551.2857142857142	-2218.8571428571427	-167592.42857142858	747.5714285714286	-52.40590068272182	-44.925116947719026	0.0	2087.4285714285716	2043.4285714285713	2576.0	212.14285714285714	162.0	194.14285714285714	177.42857142857142	215577252.7142857
2020-06-30 07:29:46.750	0.0	0.0	0.0	0.0	4.0	65.0	-3.5	52.5	-93.9	98815.7	349.0	0.10046366676688194	141.48952026367186	0.0	0.0	-1666.6	-1914.9	-167623.2	748.7	-43.11174049377441	-68.00445213317872	0.0	2072.0	2050.0	2572.0	214.3	159.9	195.1	177.7	215624044.3
2020-06-30 07:29:46.800	0.0	0.0	0.0	0.0	4.0	65.0	-7.0	52.0	-94.0	98823.2	349.0	0.10056273788213729	140.67849884033203	0.0	0.0	-1617.3	-1631.2	-167521.5	747.6	-36.88902893066406	-88.22171173095703	0.0	2075.2	2050.8	2569.2	217.5	157.4	199.2	176.1	215674148.0
2020-06-30 07:29:46.850	0.0	0.0	0.0	0.0	4.0	65.0	-4.666666666666667	49.111111111111114	-93.55555555555556	98819.0	349.0	0.10083114521370994	140.08980814615884	0.0	0.0	-1484.6666666666667	-1287.3333333333333	-167451.44444444444	747.3333333333334	-27.455894470214844	-95.48555331759982	0.0	2063.5555555555557	2046.2222222222222	2567.1111111111113	216.55555555555554	158.22222222222223	199.55555555555554	177.11111111111111	215724459.7777778
2020-06-30 07:29:46.900	0.0	0.0	0.0	0.0	4.0	65.0	-7.111111111111111	49.55555555555556	-92.0	98816.88888888889	349.0	0.10076230847173268	139.39009602864584	0.0	0.0	-1329.7777777777778	-937.3333333333334	-167381.55555555556	744.6666666666666	-25.377581066555447	-103.42952558729384	0.0	2079.5555555555557	2049.777777777778	2580.4444444444443	218.11111111111111	158.44444444444446	201.66666666666666	176.77777777777777	215776763.55555555
2020-06-30 07:29:46.950	0.0	0.0	0.0	0.0	4.0	65.0	-7.454545454545454	51.27272727272727	-93.63636363636364	98819.45454545454	349.0	0.09982042895122008	139.06105180220172	0.0	0.0	-1162.5454545454545	-661.5454545454545	-167387.18181818182	744.0	-21.1408485065807	-102.22501720081677	0.0	2066.909090909091	2034.1818181818182	2579.6363636363635	213.72727272727272	162.54545454545453	197.54545454545453	181.36363636363637	215826737.36363637
2020-06-30 07:29:47.000	0.0	0.0	0.0	0.0	4.0	65.0	-11.555555555555555	52.888888888888886	-93.33333333333333	98825.55555555556	349.0	0.0989997246199184	138.72146606445312	0.0	0.0	-1154.888888888889	-319.3333333333333	-167414.66666666666	744.0	-9.657422283043465	-104.7916276719835	0.0	2058.222222222222	2045.3333333333333	2600.4444444444443	214.88888888888889	161.55555555555554	201.66666666666666	176.11111111111111	215876851.0
2020-06-30 07:29:47.050	0.0	0.0	0.0	0.0	4.0	65.0	-8.88888888888889	52.888888888888886	-89.77777777777777	98820.22222222222	349.0	0.09566474954287212	136.76192220052084	0.0	0.0	-944.3333333333334	288.55555555555554	-167363.77777777778	743.5555555555555	-19.387308862474228	-86.21852366129558	0.0	2072.4444444444443	2045.3333333333333	2596.8888888888887	212.0	162.88888888888889	204.44444444444446	175.88888888888889	215930253.2222222
2020-06-30 07:29:47.100	0.0	0.0	0.0	0.0	4.0	65.0	-12.555555555555555	52.55555555555556	-92.77777777777777	98816.77777777778	349.0	0.09494062927034166	137.1338144938151	0.0	0.0	-728.0	746.1111111111111	-167363.77777777778	741.6666666666666	-10.807895554436577	-60.52250417073568	0.0	2073.777777777778	2040.0	2593.777777777778	209.66666666666666	165.55555555555554	204.55555555555554	177.0	215976989.2222222
2020-06-30 07:29:47.150	0.0	0.0	0.0	0.0	4.0	65.0	-10.333333333333334	51.888888888888886	-90.11111111111111	98816.0	349.0	0.09390249848365784	136.95562913682727	0.0	0.0	-578.5555555555555	888.7777777777778	-167384.55555555556	741.5555555555555	-3.663115933537483	-46.36417600843642	0.0	2070.222222222222	2042.6666666666667	2588.8888888888887	210.88888888888889	164.0	202.33333333333334	178.22222222222223	216024660.8888889
2020-06-30 07:29:47.200	0.0	0.0	0.0	0.0	4.0	65.0	-13.272727272727273	52.54545454545455	-90.54545454545455	98819.45454545454	349.0	0.09358145635236394	136.94528475674716	0.0	0.0	-387.27272727272725	578.8181818181819	-167415.72727272726	742.2727272727273	0.14361181990666824	-33.87251368435946	0.0	2075.6363636363635	2047.6363636363637	2588.0	211.9090909090909	161.45454545454547	199.8181818181818	180.9090909090909	216076989.8181818
2020-06-30 07:29:47.250	0.0	0.0	0.0	0.0	4.0	65.0	-9.875	52.125	-89.375	98817.625	349.0	0.09301381651312113	136.39548873901367	0.0	0.0	-117.75	130.125	-167472.625	742.0	1.9808099269866943	-23.949676513671875	0.0	2075.0	2041.5	2579.5	210.75	161.25	199.0	183.75	216129519.75
2020-06-30 07:29:47.300	0.0	0.0	0.0	0.0	4.0	65.0	-10.2	53.8	-90.0	98820.1	349.0	0.09152084290981292	136.02388458251954	0.0	0.0	-19.5	-190.4	-167516.0	742.0	-5.770503664016724	-12.40614785477519	0.0	2072.0	2050.4	2581.6	211.2	161.9	198.0	183.1	216174773.4
2020-06-30 07:29:47.350	0.0	0.0	0.0	0.0	4.0	65.0	-12.0	52.18181818181818	-93.45454545454545	98821.18181818182	349.0	0.09146209128878334	136.1337030584162	0.0	0.0	-77.81818181818181	-487.8181818181818	-167578.45454545456	743.1818181818181	-3.736436117779125	-3.570009123195301	0.0	2072.0	2053.090909090909	2584.7272727272725	211.8181818181818	161.9090909090909	197.8181818181818	181.36363636363637	216227158.54545453
2020-06-30 07:29:47.400	0.0	0.0	0.0	0.0	4.0	65.0	-9.75	54.75	-89.5	98816.5	349.0	0.09025884792208672	136.72368049621582	0.0	0.0	-140.25	-747.75	-167644.625	744.0	0.5856113480404019	13.962937355041504	0.0	2079.0	2044.5	2586.5	209.125	163.75	193.875	186.125	216277877.125
2020-06-30 07:29:47.450	0.0	0.0	0.0	0.0	4.0	65.0	-9.3	55.3	-89.9	98821.8	349.0	0.0912010408937931	135.12255859375	0.0	0.0	-72.8	-1114.2	-167691.5	744.7	-5.369373416900634	-3.9875706017017363	0.0	2068.4	2055.6	2577.6	213.3	158.7	196.2	183.9	216324728.0
2020-06-30 07:29:47.500	0.0	0.0	0.0	0.0	4.0	65.0	-9.0	53.8	-91.2	98821.8	349.0	0.09181936755776406	134.48212585449218	0.0	0.0	5.4	-1407.0	-167774.9	746.3	-8.105926489830017	-13.70923376083374	0.0	2066.0	2055.2	2566.8	209.9	161.1	192.2	187.9	216374804.1
2020-06-30 07:29:47.550	0.0	0.0	0.0	0.0	4.0	65.0	-6.0	52.0	-93.33333333333333	98821.33333333333	349.0	0.09240018410815133	133.8543904622396	0.0	0.0	16.444444444444443	-1537.5555555555557	-167861.0	747.8888888888889	-8.924663649664986	-22.46364508734809	0.0	2081.777777777778	2061.777777777778	2576.0	208.55555555555554	161.44444444444446	190.77777777777777	189.11111111111111	216426255.55555555
2020-06-30 07:29:47.600	0.0	0.0	0.0	0.0	4.0	65.0	-5.7	55.7	-90.7	98817.9	349.0	0.09366734847426414	133.29068908691406	0.0	0.0	134.7	-1648.6	-167945.8	747.6	-4.997375655174255	-24.17673816680908	0.0	2078.0	2059.6	2578.4	210.8	158.8	193.9	188.1	216474910.9
2020-06-30 07:29:47.650	0.0	0.0	0.0	0.0	4.0	65.0	-5.888888888888889	55.888888888888886	-89.66666666666667	98817.77777777778	349.0	0.09468760258621639	132.16575961642795	0.0	0.0	319.3333333333333	-1653.4444444444443	-167961.55555555556	747.5555555555555	-19.232714970906574	-33.81026395161947	0.0	2067.5555555555557	2058.6666666666665	2576.0	210.55555555555554	157.44444444444446	195.22222222222223	188.77777777777777	216526885.44444445
2020-06-30 07:29:47.700	0.0	0.0	0.0	0.0	4.0	65.0	-2.75	54.0	-90.5	98817.5	349.0	0.09702857211232185	130.83258819580078	0.0	0.0	272.25	-1545.75	-167938.25	748.0	-29.02822494506836	-57.712451457977295	0.0	2071.0	2051.0	2583.5	214.5	156.25	197.0	184.375	216571883.5
2020-06-30 07:29:47.750	0.0	0.0	0.0	-0.25	4.0	65.0	-4.5	51.7	-89.3	98816.8	349.0	0.09976540878415108	129.31880950927734	0.0	0.0	164.1	-1172.3	-167882.0	748.5	-32.13817367553711	-84.38829803466797	0.0	2066.4	2058.4	2580.0	213.4	155.9	198.6	184.6	216625063.5
2020-06-30 07:29:47.800	0.0	0.0	0.0	-0.25	4.0	65.0	-7.2	55.4	-91.4	98822.3	349.0	0.10135757327079772	127.03656921386718	0.0	0.0	65.6	-694.2	-167842.8	747.3	-59.25861358642578	-101.56570129394531	0.0	2073.2	2051.6	2583.2	211.2	159.9	197.7	184.9	216675088.1
2020-06-30 07:29:47.850	0.0	0.0	0.0	-0.25	4.0	65.0	-9.6	52.2	-90.4	98820.0	349.0	0.10249675437808037	126.92168731689453	0.0	0.0	-299.7	-125.5	-167834.0	746.0	-56.05376663208008	-92.8593963623047	0.0	2074.8	2055.6	2584.8	212.3	161.7	199.0	181.6	216725100.2
2020-06-30 07:29:47.900	0.0	0.0	0.0	-0.25	4.0	65.0	-9.222222222222221	52.111111111111114	-93.66666666666667	98815.66666666667	349.0	0.10465626253022088	126.71552615695529	0.0	0.0	-712.7777777777778	443.77777777777777	-167835.66666666666	745.0	-39.69778929816352	-93.7392823961046	0.0	2082.6666666666665	2054.6666666666665	2580.0	213.0	164.33333333333334	197.55555555555554	180.88888888888889	216775474.8888889
2020-06-30 07:29:47.950	0.0	0.0	0.0	-0.25	4.0	65.0	-9.444444444444445	53.666666666666664	-93.66666666666667	98816.88888888889	349.0	0.10671875377496083	126.11206902398004	0.0	0.0	-1004.3333333333334	796.3333333333334	-167842.66666666666	745.0	-28.102999369303387	-98.68619198269315	0.0	2081.3333333333335	2048.0	2579.1111111111113	213.66666666666666	163.44444444444446	197.55555555555554	180.22222222222223	216825605.2222222
2020-06-30 07:29:48.000	0.0	0.0	0.0	-0.25	4.0	65.0	-10.11111111111111	52.55555555555556	-90.55555555555556	98819.22222222222	349.0	0.10810469504859713	125.30692799886067	0.0	0.0	-1163.4444444444443	1061.7777777777778	-167827.22222222222	744.3333333333334	-31.638621436225044	-97.51345909966363	0.0	2077.777777777778	2053.3333333333335	2582.6666666666665	212.66666666666666	164.0	198.0	180.88888888888889	216872775.33333334
2020-06-30 07:29:48.050	0.0	0.0	0.0	-0.25	4.0	65.0	-12.5	48.9	-90.7	98821.9	349.0	0.1092970497906208	124.64573287963867	0.0	0.0	-1238.2	1437.6	-167872.2	743.1	-39.94344978332519	-96.36343383789062	0.0	2070.4	2053.6	2583.2	211.1	167.6	197.4	180.8	216925295.4
2020-06-30 07:29:48.100	0.0	0.0	0.0	-0.25	4.0	65.0	-13.9	50.3	-90.9	98816.7	349.0	0.10897624641656875	124.62187805175782	0.0	0.0	-1465.6	1623.0	-167972.2	743.0	-27.43090686798096	-61.665947341918944	0.0	2072.8	2046.0	2578.4	209.0	170.9	193.3	183.3	216975359.7
2020-06-30 07:29:48.150	0.0	0.0	0.0	-0.25	4.0	65.0	-12.625	48.875	-91.875	98822.75	349.0	0.11066468432545662	124.29070663452148	0.0	0.0	-1749.25	1569.375	-168089.0	743.375	-12.813140749931335	-52.39438581466675	0.0	2067.5	2064.0	2588.5	209.875	173.25	189.375	182.875	217021648.0
2020-06-30 07:29:48.200	0.0	0.0	0.0	-0.25	4.0	65.0	-12.5	49.5	-91.75	98819.125	349.0	0.11394405923783779	124.03170108795166	0.0	0.0	-1784.625	1356.375	-168239.375	742.25	9.0275799036026	-55.47872495651245	0.0	2071.0	2055.0	2579.5	210.5	170.625	190.625	185.125	217079822.0
2020-06-30 07:29:48.250	0.0	0.0	0.0	-0.25	4.0	65.0	-11.777777777777779	51.77777777777778	-93.77777777777777	98819.33333333333	349.0	0.1139058983988232	123.25572374131944	0.0	0.0	-1698.4444444444443	1346.111111111111	-168231.66666666666	742.1111111111111	9.413477102915445	-45.26476266649034	0.0	2083.1111111111113	2053.777777777778	2575.5555555555557	211.88888888888889	169.33333333333334	194.55555555555554	180.77777777777777	217125857.44444445
2020-06-30 07:29:48.300	0.0	0.0	0.0	-0.25	4.0	65.0	-10.8	49.6	-92.0	98820.6	349.0	0.11391659155488014	123.24678955078124	0.0	0.0	-1489.4	1304.5	-168324.2	742.1	23.593597984313966	-13.756354236602784	0.0	2074.8	2055.6	2578.4	207.9	171.6	192.2	184.2	217175551.9
2020-06-30 07:29:48.350	0.0	0.0	0.0	-0.25	4.0	65.0	-11.777777777777779	48.888888888888886	-90.0	98816.22222222222	349.0	0.11627994312180413	123.22881740993924	0.0	0.0	-1273.0	1192.111111111111	-168393.55555555556	739.4444444444445	45.25044631958008	-11.917277256647745	0.0	2062.6666666666665	2057.777777777778	2590.222222222222	208.77777777777777	173.44444444444446	191.0	185.66666666666666	217227053.44444445
2020-06-30 07:29:48.400	0.0	0.0	0.0	-0.25	4.0	65.0	-11.0	49.666666666666664	-90.11111111111111	98819.11111111111	349.0	0.11757446080446243	122.7383321126302	0.0	0.0	-1072.3333333333333	939.2222222222222	-168497.77777777778	737.5555555555555	50.85338168674045	-6.482492102517022	0.0	2066.6666666666665	2055.5555555555557	2592.4444444444443	210.0	172.77777777777777	190.22222222222223	186.88888888888889	217277048.1111111
2020-06-30 07:29:48.450	0.0	0.0	0.0	-0.25	4.0	65.0	-11.8	51.0	-93.2	98822.2	349.0	0.1186228334903717	122.5907356262207	0.0	0.0	-960.1	671.5	-168544.7	736.0	52.63991203308105	-9.200668334960938	0.0	2077.2	2054.8	2590.4	212.9	171.4	191.1	185.5	217325704.4
2020-06-30 07:29:48.500	0.0	0.0	0.0	-0.25	4.0	65.0	-9.375	50.625	-93.625	98816.375	349.0	0.11993538215756416	122.47213649749756	0.0	0.0	-802.0	495.5	-168626.25	734.5	58.77599334716797	-10.513898357748985	0.0	2082.5	2054.5	2590.5	208.5	174.375	188.375	189.5	217373282.875
2020-06-30 07:29:48.550	0.0	0.0	0.0	-0.25	4.0	65.0	-10.88888888888889	50.44444444444444	-92.88888888888889	98814.77777777778	349.0	0.12015501409769058	122.01156531439887	0.0	0.0	-600.6666666666666	319.77777777777777	-168707.66666666666	733.8888888888889	49.807421366373696	1.3532648616366916	0.0	2067.5555555555557	2061.777777777778	2581.777777777778	211.11111111111111	171.66666666666666	190.22222222222223	187.77777777777777	217426153.66666666
2020-06-30 07:29:48.600	0.0	0.0	0.0	-0.25	4.0	65.0	-11.88888888888889	53.0	-90.55555555555556	98815.55555555556	349.0	0.12133741130431493	122.2869890001085	0.0	0.0	-481.6666666666667	109.33333333333333	-168778.77777777778	733.0	62.298250410291885	4.040948920779758	0.0	2076.4444444444443	2050.6666666666665	2584.0	209.77777777777777	172.66666666666666	188.11111111111111	190.33333333333334	217473371.33333334
2020-06-30 07:29:48.650	0.0	0.0	0.0	-0.25	4.0	65.0	-10.454545454545455	52.09090909090909	-90.81818181818181	98814.45454545454	349.0	0.12277620827609842	122.02948552911931	0.0	0.0	-204.36363636363637	-105.36363636363636	-168837.18181818182	731.6363636363636	70.67776211825284	-0.06693822551857341	0.0	2068.3636363636365	2059.2727272727275	2592.3636363636365	210.0909090909091	171.27272727272728	189.1818181818182	190.9090909090909	217523453.63636363
2020-06-30 07:29:48.700	0.0	0.0	0.0	-0.25	4.0	65.0	-7.777777777777778	52.666666666666664	-90.66666666666667	98815.44444444444	349.0	0.12525300516022575	122.06480153401692	0.0	0.0	143.33333333333334	-229.11111111111111	-168946.33333333334	731.7777777777778	71.48290676540799	-21.546751022338867	0.0	2075.5555555555557	2052.0	2592.8888888888887	207.66666666666666	172.11111111111111	187.11111111111111	193.33333333333334	217573991.1111111
2020-06-30 07:29:48.750	0.0	0.0	0.0	-0.25	4.0	65.0	-8.333333333333334	56.111111111111114	-90.77777777777777	98811.66666666667	349.0	0.12650924424330393	122.5879135131836	0.0	0.0	416.77777777777777	-87.11111111111111	-169010.11111111112	730.6666666666666	80.77862209743924	-30.894644843207466	0.0	2077.777777777778	2055.1111111111113	2594.222222222222	207.0	173.0	188.66666666666666	192.0	217623446.55555555
2020-06-30 07:29:48.800	0.0	0.0	0.0	-0.25	3.111111111111111	65.0	-10.0	54.22222222222222	-90.88888888888889	98811.88888888889	349.0	0.12703575525018904	122.15280405680339	0.0	0.0	987.7777777777778	211.88888888888889	-169196.11111111112	731.4444444444445	62.071649339463974	-29.208845350477432	0.0	2068.0	2060.0	2612.0	223.66666666666666	152.44444444444446	214.44444444444446	168.88888888888889	217677479.66666666
2020-06-30 07:29:48.850	0.0	0.0	0.0	-0.25	3.0	65.0	-6.7	57.1	-87.9	98814.0	349.0	0.12577541917562485	122.24704513549804	0.0	0.0	1532.8	284.8	-169995.5	734.2	40.93270473480224	-5.971105688810349	0.0	2073.2	2052.8	2599.2	206.9	162.5	199.7	186.9	217726110.5
2020-06-30 07:29:48.900	0.0	0.0	0.0	-0.25	3.0	65.0	-8.4	57.8	-88.8	98815.4	349.0	0.1276309996843338	121.35477676391602	0.0	0.0	1873.6	386.3	-170837.8	735.8	2.5962558984756465	-12.686703538894653	0.0	2067.6	2056.8	2590.0	205.4	166.1	199.2	184.6	217776177.5
2020-06-30 07:29:48.950	0.0	0.0	0.0	-0.25	3.0	65.0	-7.4	57.8	-89.2	98814.2	349.0	0.12688997089862825	122.49517593383788	0.0	0.0	1882.4	661.3	-171806.3	738.6	13.156832504272462	11.899627518653869	0.0	2076.4	2050.4	2593.2	200.6	168.6	197.7	186.2	217826137.7
2020-06-30 07:29:49.000	0.0	0.0	0.0	-0.25	3.0	65.0	-6.3	58.5	-89.9	98818.5	349.0	0.12641364932060242	122.51861419677735	0.0	0.0	1834.2	954.3	-172845.5	741.6	1.0570889115333557	34.578579902648926	0.0	2080.0	2054.0	2589.2	197.2	172.1	194.3	187.8	217876195.8
2020-06-30 07:29:49.050	0.0	0.0	0.0	-0.25	3.0	65.0	-5.333333333333333	56.44444444444444	-89.11111111111111	98811.55555555556	349.0	0.1272293676932653	122.76480272081163	0.0	0.0	1641.0	1181.6666666666667	-173863.11111111112	745.8888888888889	-1.1707834800084431	45.85639953613281	0.0	2075.1111111111113	2051.5555555555557	2582.222222222222	197.11111111111111	171.77777777777777	193.0	185.77777777777777	217923742.8888889
2020-06-30 07:29:49.100	0.0	0.0	0.0	-0.25	3.0	65.0	-5.454545454545454	56.0	-87.63636363636364	98812.63636363637	349.0	0.12735655361955817	122.567270452326	0.0	0.0	1357.3636363636363	1315.3636363636363	-174929.9090909091	751.0909090909091	-13.60644583268599	55.875829523259945	0.0	2070.181818181818	2057.090909090909	2573.4545454545455	197.0	171.36363636363637	191.1818181818182	184.72727272727272	217973832.0909091
2020-06-30 07:29:49.150	0.0	0.0	0.0	-0.25	3.0	65.0	-3.5	56.9	-88.5	98811.4	349.0	0.12778778970241547	122.09424743652343	0.0	0.0	1042.1	1257.9	-176023.0	754.8	-30.479638481140135	56.44994583129883	0.0	2072.4	2053.2	2574.0	198.5	170.4	190.5	184.2	218026336.1
2020-06-30 07:29:49.200	0.0	0.0	0.0	-0.25	3.0	65.0	-1.3	56.3	-89.3	98812.6	349.0	0.1269348978996277	121.13897094726562	0.0	0.0	735.1	1033.0	-177138.2	757.4	-58.27958679199219	64.53808097839355	0.0	2065.2	2053.2	2564.4	198.5	173.5	184.7	187.5	218076427.7
2020-06-30 07:29:49.250	0.0	0.0	0.0	-0.25	3.0	65.0	0.4444444444444444	52.888888888888886	-89.55555555555556	98817.33333333333	349.44444444444446	0.1290387229786979	121.23779975043402	0.0	0.0	199.22222222222223	740.5555555555555	-178174.22222222222	759.5555555555555	-49.53321202596029	54.06806310017904	0.0	2088.4444444444443	2057.777777777778	2578.222222222222	202.44444444444446	171.66666666666666	185.88888888888889	184.11111111111111	218124033.1111111
2020-06-30 07:29:49.300	0.0	0.0	0.0	-0.25	3.0	65.0	1.0	52.45454545454545	-90.0909090909091	98813.63636363637	349.72727272727275	0.12939698587764392	121.23757587779652	0.0	0.0	-138.8181818181818	561.3636363636364	-179260.54545454544	762.0	-42.35775583440607	50.72609121149237	0.0	2081.4545454545455	2053.090909090909	2576.7272727272725	201.72727272727272	172.36363636363637	185.45454545454547	184.72727272727272	218174063.45454547
2020-06-30 07:29:49.350	0.0	0.0	0.0	-0.25	3.0	65.0	1.8888888888888888	49.666666666666664	-89.0	98811.77777777778	349.44444444444446	0.12919679118527305	120.81803470187717	0.0	0.0	-421.3333333333333	397.0	139657.0	763.6666666666666	-53.61216523912218	49.014607747395836	0.0	2074.6666666666665	2057.3333333333335	2569.3333333333335	201.66666666666666	173.22222222222223	183.77777777777777	186.11111111111111	218224110.44444445
2020-06-30 07:29:49.400	0.0	0.0	0.0	-0.25	3.0	65.0	4.7272727272727275	49.81818181818182	-90.72727272727273	98813.36363636363	349.90909090909093	0.13021854243495248	120.26660294966264	0.0	0.0	-549.8181818181819	274.6363636363636	178563.63636363635	765.3636363636364	-48.246505390514024	36.92404053427956	0.0	2071.2727272727275	2051.6363636363635	2566.909090909091	201.54545454545453	171.54545454545453	186.0909090909091	185.9090909090909	218274133.36363637
2020-06-30 07:29:49.450	0.0	0.0	0.0	-0.25	3.0	65.0	2.4	49.6	-90.0	98815.6	349.8	0.12915866672992707	118.69692840576172	0.0	0.0	-624.8	214.8	177350.2	766.8	-77.77689361572266	26.062746047973633	0.0	2059.2	2059.2	2554.4	201.6	173.8	184.4	185.4	218330108.2
2020-06-30 07:29:49.500	0.0	0.0	0.0	-0.25	3.0	65.0	8.11111111111111	50.333333333333336	-91.66666666666667	98814.55555555556	349.77777777777777	0.1291196064816581	118.21578301323785	0.0	0.0	-741.8888888888889	194.33333333333334	176503.0	768.4444444444445	-75.56904432508681	26.233516269259983	0.0	2080.8888888888887	2053.3333333333335	2572.4444444444443	202.22222222222223	173.11111111111111	184.44444444444446	184.88888888888889	218369224.8888889
2020-06-30 07:29:49.550	0.0	0.0	0.0	-0.25	3.0	65.0	8.0	47.2	-88.8	98821.1	350.0	0.13033923655748367	117.5264289855957	0.0	0.0	-804.3	120.8	175338.0	768.0	-70.57700805664062	7.828096175193787	0.0	2072.8	2054.4	2578.0	201.7	174.2	184.2	187.0	218421740.1
2020-06-30 07:29:49.600	0.0	0.0	0.0	-0.25	3.0	65.0	7.777777777777778	49.77777777777778	-90.66666666666667	98815.11111111111	350.0	0.13038259082370335	116.68688625759549	0.0	0.0	-850.7777777777778	97.66666666666667	174166.11111111112	768.0	-74.39939880371094	-2.508214188946618	0.0	2091.1111111111113	2051.1111111111113	2584.8888888888887	201.44444444444446	175.44444444444446	183.44444444444446	187.66666666666666	218473184.7777778
2020-06-30 07:29:49.650	0.0	0.0	0.0	-0.25	3.0	65.0	7.375	47.375	-89.625	98818.125	350.0	0.13110998645424843	115.874587059021	0.0	0.0	-786.875	78.875	173038.75	768.875	-73.07534885406494	-18.32591950893402	0.0	2063.0	2057.0	2577.5	197.5	176.875	181.875	190.375	218521842.5
2020-06-30 07:29:49.700	0.0	0.0	0.0	-0.25	3.0	65.0	11.0	49.22222222222222	-89.66666666666667	98816.0	350.0	0.13157593541675144	115.1146011352539	0.0	0.0	-815.4444444444445	194.66666666666666	171912.44444444444	768.7777777777778	-80.73199801974826	-29.489633348253037	0.0	2084.4444444444443	2049.777777777778	2577.777777777778	200.88888888888889	177.44444444444446	183.44444444444446	185.77777777777777	218571129.2222222
2020-06-30 07:29:49.750	0.0	0.0	0.0	-0.25	3.0	65.0	11.0	44.6	-92.0	98814.6	350.0	0.13347334861755372	115.69629592895508	0.0	0.0	-892.3	324.2	170599.9	767.7	-46.92173461914062	-38.13575134277344	0.0	2075.2	2049.2	2582.8	199.6	177.8	184.7	187.3	218626946.6
2020-06-30 07:29:49.800	0.0	0.0	0.0	-0.25	3.0	65.0	12.222222222222221	46.666666666666664	-90.22222222222223	98819.33333333333	350.0	0.133435414897071	114.46832699245877	0.0	0.0	-890.3333333333334	433.22222222222223	169527.77777777778	765.6666666666666	-55.91259256998698	-53.226977030436196	0.0	2076.4444444444443	2048.8888888888887	2578.6666666666665	201.66666666666666	178.66666666666666	184.77777777777777	186.33333333333334	218674485.55555555
2020-06-30 07:29:49.850	0.0	0.0	0.0	-0.25	3.0	65.0	13.454545454545455	45.27272727272727	-89.27272727272727	98818.63636363637	350.0	0.1343387080864473	114.08464813232422	0.0	0.0	-1011.5454545454545	557.5454545454545	168393.0	764.2727272727273	-51.584903717041016	-64.60156007246538	0.0	2084.0	2049.818181818182	2586.181818181818	201.8181818181818	179.1818181818182	185.9090909090909	185.54545454545453	218724564.45454547
2020-06-30 07:29:49.900	0.0	0.0	0.0	-0.25	3.0	65.0	12.666666666666666	44.0	-89.77777777777777	98812.88888888889	350.0	0.13481169607904223	113.65923224555121	0.0	0.0	-1031.7777777777778	697.3333333333334	167297.88888888888	762.4444444444445	-45.02615271674262	-67.86517418755426	0.0	2076.8888888888887	2050.6666666666665	2582.6666666666665	202.55555555555554	178.44444444444446	188.0	184.22222222222223	218774633.8888889
2020-06-30 07:29:49.950	0.0	0.0	0.0	-0.25	3.0	65.0	16.625	44.125	-90.875	98817.75	350.0	0.13556122407317162	113.1308364868164	0.0	0.0	-1030.125	742.25	166167.625	761.5	-40.63707733154297	-70.73066902160645	0.0	2074.5	2049.0	2581.5	202.5	178.375	187.0	185.0	218826541.25
2020-06-30 07:29:50.000	0.0	0.0	0.0	-0.25	3.0	65.0	17.75	42.75	-89.25	98816.0	350.0	0.13619744032621384	112.66099262237549	0.0	0.0	-871.25	755.625	165167.25	760.875	-29.45223641395569	-73.8839979171753	0.0	2078.5	2049.0	2586.0	201.125	176.75	189.125	186.25	218872119.375
2020-06-30 07:29:50.050	0.0	0.0	0.0	-0.25	3.0	65.0	17.8	42.8	-89.8	98817.8	350.0	0.13565416932106017	111.92634963989258	0.0	0.0	-714.2	639.3	164076.9	758.4	-35.59860744476318	-74.26056289672852	0.0	2075.2	2046.4	2576.0	204.6	175.1	188.9	186.0	218923726.9
2020-06-30 07:29:50.100	0.0	0.0	0.0	-0.25	3.0	65.0	18.77777777777778	43.22222222222222	-91.22222222222223	98817.77777777778	350.0	0.1371234936846627	110.86028374565973	0.0	0.0	-458.1111111111111	377.6666666666667	162908.33333333334	757.3333333333334	-34.66503122117784	-94.07266320122613	0.0	2079.5555555555557	2053.777777777778	2581.3333333333335	204.44444444444446	172.66666666666666	189.66666666666666	187.55555555555554	218979284.7777778
2020-06-30 07:29:50.150	0.0	0.0	0.0	-0.25	3.0	65.0	20.714285714285715	41.285714285714285	-86.14285714285714	98816.85714285714	350.0	0.13835301995277405	110.34501538957868	0.0	0.0	-256.57142857142856	152.28571428571428	161979.85714285713	757.1428571428571	-31.47124126979283	-107.8720953805106	0.0	2064.5714285714284	2053.714285714286	2581.714285714286	201.57142857142858	174.14285714285714	186.71428571428572	190.85714285714286	219021928.57142857
2020-06-30 07:29:50.200	0.0	0.0	0.0	-0.25	3.0	65.0	21.636363636363637	42.36363636363637	-88.9090909090909	98813.90909090909	350.0	0.1397268216718327	109.94985268332742	0.0	0.0	14.909090909090908	45.09090909090909	160923.0909090909	756.6363636363636	-16.762745250355113	-123.70810075239702	0.0	2078.909090909091	2047.6363636363637	2591.2727272727275	203.27272727272728	171.1818181818182	190.8181818181818	187.63636363636363	219071688.0909091
2020-06-30 07:29:50.250	0.0	0.0	0.0	-0.25	3.0	65.0	22.77777777777778	44.55555555555556	-87.0	98817.66666666667	350.0	0.1403901047176785	109.72526465521918	0.0	0.0	196.11111111111111	-66.11111111111111	159774.11111111112	758.6666666666666	-16.200520939297146	-127.58916897243924	0.0	2079.5555555555557	2039.111111111111	2585.777777777778	203.55555555555554	170.22222222222223	189.55555555555554	186.0	219127071.2222222
2020-06-30 07:29:50.300	0.0	0.0	0.0	-0.25	3.0	65.0	23.555555555555557	42.0	-89.11111111111111	98817.33333333333	350.0	0.14176713426907858	109.36776648627387	0.0	0.0	233.44444444444446	-177.33333333333334	158781.44444444444	759.0	-8.325821611616346	-135.98716057671442	0.0	2082.222222222222	2046.2222222222222	2580.8888888888887	202.55555555555554	171.22222222222223	187.77777777777777	188.0	219174950.0
2020-06-30 07:29:50.350	0.0	0.0	0.0	-0.25	3.0	65.0	22.4	40.8	-84.8	98819.4	350.0	0.1429942637681961	109.02710723876953	0.0	0.0	225.2	-254.6	157871.4	759.4	-1.9879153966903687	-153.0667236328125	0.0	2098.4	2040.0	2581.6	206.0	168.2	190.8	184.4	219221032.4
2020-06-30 07:29:50.400	0.0	0.0	0.0	-0.25	3.0	65.0	25.5	41.25	-88.75	98816.0	350.0	0.14408261515200138	108.56750106811523	0.0	0.0	200.25	-254.0	156849.375	760.625	-0.44478957913815975	-166.9360809326172	0.0	2087.5	2042.0	2584.0	203.0	171.0	188.625	185.25	219271274.125
2020-06-30 07:29:50.450	0.0	0.0	0.0	-0.25	3.0	65.0	27.6	41.6	-88.0	98818.4	350.0	0.14454261511564254	108.54187622070313	0.0	0.0	193.9	-179.3	155783.9	761.8	-2.042132955789566	-168.59662170410155	0.0	2080.0	2044.4	2583.2	202.8	170.2	188.9	185.5	219322573.5
2020-06-30 07:29:50.500	0.0	0.0	0.0	-0.25	3.0	65.0	25.8	36.6	-90.2	98817.7	350.0	0.14586677700281142	107.52638168334961	0.0	0.0	100.7	-198.6	154841.5	763.2	-10.635739278793334	-192.1465835571289	0.0	2076.4	2047.6	2576.8	207.9	166.9	191.4	179.9	219372722.9
2020-06-30 07:29:50.550	0.0	0.0	0.0	-0.25	3.0	65.0	26.0	38.0	-88.6	98816.7	350.0	0.14685082584619522	107.44032516479493	0.0	0.0	-117.2	-132.3	153783.8	764.4	1.2216335892677308	-197.9344696044922	0.0	2053.6	2040.8	2574.4	201.4	174.1	184.2	186.1	219423842.9
2020-06-30 07:29:50.600	0.0	0.0	0.0	-0.25	3.0	65.0	25.77777777777778	37.77777777777778	-87.77777777777777	98818.88888888889	350.0	0.14991269177860683	106.43634202745226	0.0	0.0	-360.77777777777777	-101.0	152708.33333333334	766.7777777777778	21.5820955435435	-220.75655110677084	0.0	2084.8888888888887	2047.5555555555557	2580.0	204.22222222222223	170.55555555555554	188.88888888888889	179.77777777777777	219475199.0
2020-06-30 07:29:50.650	0.0	0.0	0.0	-0.25	3.0	65.0	26.8	33.6	-87.6	98816.0	350.0	0.1498485326766968	106.30496520996094	0.0	0.0	-328.3	126.5	151731.0	768.0	32.20260066986084	-229.2085952758789	0.0	2077.2	2040.8	2572.8	200.3	172.6	187.7	183.0	219523128.7
2020-06-30 07:29:50.700	0.0	0.0	0.0	-0.25	3.0	65.0	26.77777777777778	33.44444444444444	-88.77777777777777	98816.77777777778	350.0	0.15008164776696098	105.619874742296	0.0	0.0	-443.0	412.55555555555554	150773.88888888888	770.0	17.502576722039116	-230.32821146647134	0.0	2084.8888888888887	2035.5555555555557	2573.3333333333335	203.11111111111111	173.22222222222223	189.66666666666666	176.44444444444446	219570915.66666666
2020-06-30 07:29:50.750	0.0	0.0	0.0	-0.25	3.0	65.0	25.666666666666668	33.888888888888886	-89.0	98813.88888888889	350.0	0.1520239512125651	105.80003865559895	0.0	0.0	-591.3333333333334	733.6666666666666	149665.33333333334	770.0	46.530725691053604	-235.39235602484808	0.0	2078.222222222222	2040.0	2579.1111111111113	199.0	176.77777777777777	187.22222222222223	181.44444444444446	219622045.8888889
2020-06-30 07:29:50.800	0.0	0.0	0.0	-0.25	3.0	65.0	30.8	34.4	-89.6	98813.0	350.0	0.15162426382303237	105.4167236328125	0.0	0.0	-488.2	907.5	148603.8	771.2	46.15758514404297	-227.68649139404297	0.0	2077.2	2037.6	2570.8	199.8	173.6	189.1	180.9	219672930.4
2020-06-30 07:29:50.850	0.0	0.0	0.0	-0.25	3.0	65.0	29.875	30.875	-89.875	98809.125	350.0	0.15200928784906864	104.25	0.0	0.0	-469.375	1007.75	147641.5	772.0	26.622562408447266	-248.6017074584961	0.0	2064.5	2040.0	2563.5	200.25	174.5	190.0	179.0	219719230.125
2020-06-30 07:29:50.900	0.0	0.0	0.0	-0.25	3.0	65.0	25.88888888888889	30.77777777777778	-87.44444444444444	98811.55555555556	350.0	0.15175294048256344	104.13049909803603	0.0	0.0	-531.7777777777778	1158.3333333333333	146569.22222222222	782.7777777777778	33.84933450486925	-240.90195041232639	0.0	2068.8888888888887	2037.3333333333333	2564.4444444444443	196.11111111111111	173.44444444444446	185.22222222222223	176.44444444444446	219770554.7777778
2020-06-30 07:29:50.950	0.0	0.0	0.0	-0.25	3.0	65.0	28.5	30.1	-87.5	98819.1	350.0	0.15329285264015197	104.11000442504883	0.0	0.0	-636.9	1282.3	145442.2	776.1	65.22210845947265	-242.40713958740236	0.0	2080.4	2033.2	2568.0	197.9	178.7	187.0	180.1	219821606.0
2020-06-30 07:29:51.000	0.0	0.0	0.0	-0.25	3.0	65.0	29.4	27.0	-88.6	98812.8	350.0	0.1535763293504715	104.17431564331055	0.0	0.0	-537.5	1454.8	144377.4	772.0	89.076416015625	-237.76668243408204	0.0	2074.0	2036.4	2573.2	199.5	176.7	193.5	179.2	219873128.7
2020-06-30 07:29:51.050	0.0	0.0	0.0	-0.25	3.0	65.0	28.11111111111111	26.555555555555557	-89.88888888888889	98815.66666666667	350.0	0.15172420607672799	103.79792361789279	0.0	0.0	-543.1111111111111	1560.2222222222222	143325.88888888888	768.1111111111111	68.1684324476454	-221.93636406792535	0.0	2071.1111111111113	2036.888888888889	2567.5555555555557	199.11111111111111	181.88888888888889	189.0	182.33333333333334	219920640.1111111
2020-06-30 07:29:51.100	0.0	0.0	0.0	-0.25	3.0	65.0	30.1	26.5	-90.1	98812.4	350.0	0.153654845058918	103.3983543395996	0.0	0.0	-589.9	1579.4	142145.3	764.5	90.99466171264649	-226.68832397460938	0.0	2065.6	2040.4	2578.0	198.0	183.1	189.3	184.0	219972695.5
2020-06-30 07:29:51.150	0.0	0.0	0.0	-0.25	3.0	65.0	29.0	27.0	-89.0	98816.7	350.0	0.15426310300827026	103.70262603759765	0.0	0.0	-580.2	1681.0	141067.3	762.4	110.48532180786133	-224.59487915039062	0.0	2083.2	2030.8	2586.0	200.9	180.4	193.5	179.6	220023321.0
2020-06-30 07:29:51.200	0.0	0.0	0.0	-0.25	3.0	65.0	29.8	23.4	-89.8	98813.5	350.0	0.15594321340322495	104.2408432006836	0.0	0.0	-412.0	1772.2	139931.0	759.3	143.85171966552736	-210.46841583251953	0.0	2080.4	2039.6	2589.2	195.8	183.2	192.1	184.5	220073318.0
2020-06-30 07:29:51.250	0.0	0.0	0.0	-0.25	3.0	65.0	28.444444444444443	23.333333333333332	-87.11111111111111	98818.77777777778	350.0	0.15633398294448853	103.9975094265408	0.0	0.0	-209.88888888888889	1866.888888888889	138814.0	756.5555555555555	143.12144300672742	-195.1694098578559	0.0	2073.777777777778	2040.4444444444443	2584.4444444444443	195.11111111111111	183.88888888888889	191.33333333333334	186.0	220122483.66666666
2020-06-30 07:29:51.300	0.0	0.0	0.0	-0.25	3.0	65.0	32.8	22.4	-89.2	98810.9	350.0	0.15839485377073287	103.60091552734374	0.0	0.0	-67.0	1663.1	137623.9	754.5	153.07557678222656	-189.87066497802735	0.0	2074.0	2039.2	2587.6	197.5	181.7	190.3	186.5	220173391.2
2020-06-30 07:29:51.350	0.0	0.0	0.0	-0.25	3.0	65.0	31.6	24.0	-88.0	98819.4	350.0	0.16076208055019378	103.83814849853516	0.0	0.0	27.2	1547.7	136458.3	753.5	193.885693359375	-190.09021606445313	0.0	2072.4	2040.4	2586.4	194.9	182.8	190.6	186.4	220223467.5
2020-06-30 07:29:51.400	0.0	0.0	0.0	-0.25	3.0	65.0	33.0	22.555555555555557	-90.77777777777777	98823.22222222222	350.0	0.16188540889157188	104.29830932617188	0.0	0.0	275.1111111111111	1476.4444444444443	135289.11111111112	751.7777777777778	210.43794589572482	-161.71264139811197	0.0	2082.6666666666665	2040.888888888889	2587.1111111111113	193.33333333333334	181.77777777777777	191.22222222222223	188.44444444444446	220272596.1111111
2020-06-30 07:29:51.450	0.0	0.0	0.0	-0.25	3.0	65.0	30.75	22.0	-89.25	98815.125	350.0	0.1642324160784483	103.87398147583008	0.0	0.0	435.25	1379.5	134041.25	750.625	217.43791580200195	-166.09373092651367	0.0	2087.5	2038.0	2587.5	195.25	181.625	191.125	186.25	220327246.875
2020-06-30 07:29:51.500	0.0	0.0	0.0	-0.25	3.0	65.0	33.4	19.4	-87.8	98816.9	350.0	0.1661565497517586	103.91101150512695	0.0	0.0	501.8	1260.8	132900.3	749.5	242.66312713623046	-161.66856384277344	0.0	2076.4	2042.4	2592.8	191.5	182.8	188.9	191.6	220373559.0
2020-06-30 07:29:51.550	0.0	0.0	0.0	-0.25	3.0	65.0	36.111111111111114	18.333333333333332	-87.66666666666667	98815.22222222222	350.0	0.16657488544782004	102.96842702229817	0.0	0.0	739.3333333333334	1078.888888888889	131732.33333333334	748.3333333333334	240.1687740749783	-168.22472296820746	0.0	2072.4444444444443	2042.6666666666667	2584.8888888888887	195.11111111111111	178.55555555555554	192.0	189.11111111111111	220422776.55555555
2020-06-30 07:29:51.600	0.0	0.0	0.0	-0.25	3.0	65.0	34.22222222222222	19.77777777777778	-88.0	98815.88888888889	350.0	0.1682378285461002	102.9749993218316	0.0	0.0	743.7777777777778	785.5555555555555	130617.55555555556	747.5555555555555	241.51573011610242	-163.95623270670572	0.0	2073.777777777778	2041.3333333333333	2579.5555555555557	196.66666666666666	178.88888888888889	188.66666666666666	189.77777777777777	220471123.0
2020-06-30 07:29:51.650	0.0	0.0	0.0	-0.25	3.0	65.0	35.0	17.4	-88.2	98816.0	350.0	0.17148251086473465	102.84228973388672	0.0	0.0	553.3	388.8	129393.7	747.6	258.4592544555664	-160.58484802246093	0.0	2084.8	2045.6	2593.6	198.3	178.2	187.0	189.8	220523702.5
2020-06-30 07:29:51.700	0.0	0.0	0.0	-0.25	3.0	65.0	38.2	16.6	-86.6	98814.8	350.0	0.17408088743686675	102.46879119873047	0.0	0.0	763.0	56.5	128221.4	751.8	273.47255249023436	-157.93372192382813	0.0	2078.8	2049.2	2586.4	193.1	173.4	189.3	191.5	220573815.3
2020-06-30 07:29:51.750	0.0	0.0	0.0	-0.25	3.0	65.0	36.875	18.875	-87.125	98816.375	350.0	0.1743147373199463	101.3354434967041	0.0	0.0	1134.125	115.125	127112.125	751.75	252.1094970703125	-173.58842658996582	0.0	2074.0	2052.0	2571.0	188.25	177.875	189.875	192.375	220619498.75
2020-06-30 07:29:51.800	0.0	0.0	0.0	-0.25	3.0	65.0	39.2	17.2	-86.8	98820.2	350.4	0.17689194828271865	100.61614074707032	0.0	0.0	1306.1	326.6	125742.1	753.2	257.5647567749023	-181.1751907348633	0.0	2073.2	2045.6	2581.2	187.6	181.0	186.3	192.7	220673983.3
2020-06-30 07:29:51.850	0.0	0.0	0.0	-0.25	3.0	65.0	37.375	16.875	-89.125	98816.375	350.125	0.18144769221544266	100.1062126159668	0.0	0.0	1365.125	509.625	124355.125	754.0	281.49957275390625	-184.8569164276123	0.0	2079.0	2054.5	2593.0	182.125	184.25	185.375	196.0	220723891.875
2020-06-30 07:29:51.900	0.0	0.0	0.0	-0.25	3.0	65.0	38.0	12.8	-86.0	98810.1	350.2	0.1835814595222473	99.74859466552735	0.0	0.0	1451.0	586.2	122949.0	755.7	283.58986511230466	-179.6658905029297	0.0	2083.2	2039.2	2582.4	182.3	185.4	179.9	198.8	220774035.2
2020-06-30 07:29:51.950	0.0	0.0	0.0	-0.25	3.0	65.0	39.2	13.6	-86.4	98815.3	350.5	0.18611612915992737	99.27634124755859	0.0	0.0	981.7	130.2	121509.7	756.8	271.55638122558594	-180.42959442138672	0.0	2060.8	2017.2	2580.8	192.7	182.8	176.6	193.8	220823986.3
2020-06-30 07:29:52.000	0.0	0.0	0.0	-0.25	3.0	65.0	41.25	8.75	-90.5	98809.5	350.0	0.1652372721582651	107.11286163330078	0.0	0.0	-259.125	-610.5	121732.75	758.625	215.0892095565796	-158.13910102844238	0.0	1733.5	1754.5	2601.5	246.25	134.625	224.375	139.375	220870967.375
2020-06-30 07:29:52.050	0.0	0.0	0.0	-0.25	3.0	65.0	41.0	9.666666666666666	-86.11111111111111	98814.44444444444	350.6666666666667	0.09913474155796899	148.0259051852756	0.0	0.0	-1517.5555555555557	-1264.4444444444443	120956.66666666667	757.7777777777778	-38.42634132173326	19.97881990008884	0.0	1879.111111111111	1900.4444444444443	2626.222222222222	193.33333333333334	184.55555555555554	175.44444444444446	194.33333333333334	220925519.55555555
2020-06-30 07:29:52.100	0.0	0.0	0.0	-0.25	3.0	65.0	42.0	8.0	-89.5	98818.375	350.625	0.0923415832221508	163.41831398010254	0.0	0.0	-1967.625	-1496.125	120264.875	756.25	-154.4616870880127	81.21769905090332	0.0	2086.5	2045.5	2595.0	223.5	166.5	189.0	171.125	220974185.5
2020-06-30 07:29:52.150	0.0	0.0	0.0	-0.25	3.0	65.0	45.111111111111114	5.333333333333333	-89.11111111111111	98813.44444444444	351.0	0.09194808287753	161.94929843478732	0.0	0.0	-2668.6666666666665	-1614.6666666666667	119330.22222222222	756.3333333333334	-172.79135470920139	85.39439815945096	0.0	2098.222222222222	2061.3333333333335	2579.5555555555557	220.11111111111111	175.66666666666666	181.66666666666666	172.33333333333334	221023382.66666666
2020-06-30 07:29:52.200	0.0	0.0	0.0	-0.25	3.0	65.0	42.875	4.625	-88.625	98812.625	351.0	0.09348852839320898	158.75333976745605	0.0	0.0	-3181.625	-1421.25	118252.125	759.875	-135.5455265045166	68.54480171203613	0.0	2102.5	2048.5	2584.0	213.625	177.75	177.75	176.75	221078017.625
2020-06-30 07:29:52.250	0.0	0.0	0.0	-0.25	3.0	65.0	44.44444444444444	3.3333333333333335	-87.55555555555556	98815.11111111111	351.0	0.09525314884053336	157.34190199110242	0.0	0.0	-3328.6666666666665	-1493.3333333333333	117303.0	761.7777777777778	-95.43357340494792	62.330600314670136	0.0	2093.777777777778	2048.4444444444443	2582.222222222222	210.33333333333334	180.33333333333334	172.22222222222223	181.22222222222223	221121754.55555555
2020-06-30 07:29:52.300	0.0	0.0	0.0	-0.25	3.0	65.0	42.3	0.3	-89.1	98816.8	351.0	0.0961092546582222	155.17327423095702	0.0	0.0	-3320.8	-1467.7	116309.5	765.1	-46.10561332702637	41.2523910522461	0.0	2096.4	2050.8	2580.4	213.6	174.6	178.7	174.9	221170376.1
2020-06-30 07:29:52.350	0.0	0.0	0.0	-0.25	3.0	65.0	43.44444444444444	-1.0	-85.0	98817.88888888889	351.0	0.09561407648854786	152.7935791015625	0.0	0.0	-3079.5555555555557	-1342.888888888889	115201.22222222222	768.3333333333334	-18.34702597724067	7.181406418482463	0.0	2092.8888888888887	2048.0	2577.3333333333335	209.88888888888889	174.33333333333334	179.11111111111111	176.55555555555554	221225724.55555555
2020-06-30 07:29:52.400	0.0	0.0	0.0	-0.25	3.0	65.0	44.625	-0.125	-85.875	98817.0	351.0	0.0962071418762207	149.77885055541992	0.0	0.0	-2695.125	-1151.125	114149.0	770.25	24.93967893719673	-34.676103830337524	0.0	2103.5	2046.5	2584.0	207.625	173.5	181.25	177.5	221275702.75
2020-06-30 07:29:52.450	0.0	0.0	0.0	-0.25	3.0	65.0	45.111111111111114	0.6666666666666666	-84.66666666666667	98816.22222222222	351.0	0.09523122095399433	148.5349646674262	0.0	0.0	-2200.5555555555557	-1010.3333333333334	113214.55555555556	772.4444444444445	36.92726368374295	-58.46829308403863	0.0	2077.3333333333335	2043.111111111111	2572.0	209.44444444444446	170.77777777777777	182.55555555555554	175.88888888888889	221323679.0
2020-06-30 07:29:52.500	0.0	0.0	0.0	-0.25	3.0	65.0	44.4	-1.2	-88.4	98820.0	351.0	0.09507749602198601	146.64383392333986	0.0	0.0	-1951.2	-987.7	112211.8	776.0	57.97530937194824	-82.82860565185547	0.0	2077.6	2044.0	2569.6	208.0	170.8	180.1	177.3	221374587.5
2020-06-30 07:29:52.550	0.0	0.0	0.0	-0.25	3.0	65.0	45.666666666666664	-0.5555555555555556	-86.77777777777777	98816.33333333333	351.0	0.09313699437512292	144.68814934624567	0.0	0.0	-1814.2222222222222	-979.2222222222222	111235.88888888889	778.6666666666666	75.82295396592882	-110.85945807562933	0.0	2077.777777777778	2045.7777777777778	2563.1111111111113	207.88888888888889	172.44444444444446	179.11111111111111	175.66666666666666	221422020.1111111
2020-06-30 07:29:52.600	0.0	0.0	0.0	-0.25	3.0	65.0	44.55555555555556	-3.2222222222222223	-86.11111111111111	98817.66666666667	351.0	0.0951682718263732	142.96328396267361	0.0	0.0	-1672.5555555555557	-790.7777777777778	110326.0	780.0	118.22768825954861	-115.8077629937066	0.0	2088.8888888888887	2039.111111111111	2574.222222222222	206.33333333333334	171.44444444444446	182.55555555555554	175.77777777777777	221468244.33333334
2020-06-30 07:29:52.650	0.0	0.0	0.0	-0.25	3.0	65.0	43.4	-2.4	-86.8	98816.9	351.0	0.09553574472665786	141.70152740478517	0.0	0.0	-1182.9	-657.1	109146.7	782.4	145.15390014648438	-116.61560668945313	0.0	2070.8	2046.4	2570.0	202.7	170.5	181.8	180.1	221523620.2
2020-06-30 07:29:52.700	0.0	0.0	0.0	-0.25	3.0	65.0	43.25	-2.25	-85.25	98812.25	351.0	0.09488916490226984	140.45559120178223	0.0	0.0	-736.375	-791.625	108277.25	781.375	153.52538681030273	-130.70732879638672	0.0	2073.5	2034.5	2569.0	208.875	165.0	185.0	179.375	221569644.75
2020-06-30 07:29:52.750	0.0	0.0	0.0	-0.25	3.0	65.0	45.111111111111114	-4.0	-86.66666666666667	98818.77777777778	351.0	0.0944179967045784	138.0657026502821	0.0	0.0	-392.8888888888889	-1007.1111111111111	107221.44444444444	781.3333333333334	178.54112921820746	-155.16564263237848	0.0	2079.5555555555557	2039.111111111111	2570.6666666666665	207.77777777777777	167.11111111111111	183.88888888888889	180.44444444444446	221623334.55555555
2020-06-30 07:29:52.800	0.0	0.0	0.0	-0.25	3.0	65.0	47.5	-3.5	-84.5	98817.875	351.0	0.09642776194959879	137.36755561828613	0.0	0.0	-262.25	-1100.125	106365.75	780.625	211.91406631469727	-170.21665573120117	0.0	2002.0	1964.5	2580.5	220.375	155.625	197.375	167.125	221675471.75
2020-06-30 07:29:52.850	0.0	0.0	0.0	-0.25	3.0	65.0	45.8	-3.0	-85.4	98817.0	351.0	0.10442843362689018	60.783163452148436	0.0	0.0	-866.3	-1408.0	106921.8	781.5	89.68068296909333	-139.1439353942871	0.0	1731.6	1835.2	2620.4	245.9	130.5	222.6	140.4	221724792.1
2020-06-30 07:29:52.900	0.0	0.0	0.0	-0.25	3.0	65.0	47.0	-1.5	-84.25	98822.0	351.0	0.12992424238473177	-164.02487564086914	0.0	0.0	-1178.375	-1482.0	106237.0	782.25	-70.08035039901733	-45.734212160110474	0.0	2030.5	2029.5	2604.5	210.5	168.125	183.25	177.5	221771838.625
2020-06-30 07:29:52.950	0.0	0.0	0.0	-0.25	3.0	65.0	43.285714285714285	-3.857142857142857	-86.42857142857143	98816.42857142857	351.0	0.12889515502112253	-162.12710789271765	0.0	0.0	-1020.8571428571429	-950.1428571428571	105514.28571428571	781.0	-126.26578739711216	-46.70217078072684	0.0	2108.5714285714284	2045.7142857142858	2567.4285714285716	212.14285714285714	168.57142857142858	188.85714285714286	171.0	221823873.85714287
2020-06-30 07:29:53.000	0.0	0.0	0.0	-0.25	3.0	65.0	45.22222222222222	-6.111111111111111	-87.22222222222223	98819.55555555556	351.0	0.12654526697264779	-163.03288099500867	0.0	0.0	-1128.888888888889	-452.22222222222223	104758.88888888889	779.6666666666666	-129.90622202555338	-45.06546825832791	0.0	2094.222222222222	2045.3333333333333	2568.8888888888887	216.11111111111111	170.44444444444446	190.44444444444446	164.66666666666666	221867488.7777778
2020-06-30 07:29:53.050	0.0	0.0	0.0	-0.25	3.0	65.0	41.27272727272727	-6.909090909090909	-86.0	98813.54545454546	351.0	0.12289771844040263	-165.01904990456322	0.0	0.0	-1250.5454545454545	90.36363636363636	103710.36363636363	777.9090909090909	-72.32261727072976	-55.76045469804244	0.0	2092.3636363636365	2037.4545454545455	2580.3636363636365	204.72727272727272	179.9090909090909	180.9090909090909	177.54545454545453	221919311.0
2020-06-30 07:29:53.100	0.0	0.0	0.0	-0.25	3.0	65.0	42.57142857142857	-6.857142857142857	-86.0	98816.0	351.0	0.11976776697805949	-166.11257934570312	0.0	0.0	-1245.142857142857	313.85714285714283	102590.42857142857	775.4285714285714	-55.01059014456613	-71.21739741734096	0.0	2093.714285714286	2025.142857142857	2564.5714285714284	207.42857142857142	177.71428571428572	182.85714285714286	176.42857142857142	221973366.42857143
2020-06-30 07:29:53.150	0.0	0.0	0.0	-0.25	3.0	65.0	43.25	-6.75	-87.25	98814.75	351.0	0.11784454062581062	-167.10504150390625	0.0	0.0	-1144.0	356.0	101516.625	774.5	-39.12743520736694	-77.08837890625	0.0	2087.0	2046.5	2577.5	203.5	180.625	179.25	181.375	222020057.25
2020-06-30 07:29:53.200	0.0	0.0	0.0	-0.25	3.0	65.0	41.1	-8.9	-83.1	98809.7	351.0	0.11418509632349014	-168.06939239501952	0.0	0.0	-907.4	368.2	100372.1	773.4	-24.414265441894532	-94.00377731323242	0.0	2082.0	2047.6	2576.8	203.7	178.2	182.7	179.6	222071737.3
2020-06-30 07:29:53.250	0.0	0.0	0.0	-0.25	3.0	65.0	42.2	-8.6	-86.2	98816.4	351.0	0.11005389168858529	-169.5278091430664	0.0	0.0	-649.0	634.3	99232.6	770.9	-7.7628907561302185	-119.88290557861328	0.0	2088.4	2044.8	2582.0	202.3	179.0	185.1	179.4	222125152.0
2020-06-30 07:29:53.300	0.0	0.0	0.0	-0.25	3.0	65.0	43.0	-11.444444444444445	-87.0	98816.66666666667	351.0	0.105460191766421	-170.9362267388238	0.0	0.0	-348.1111111111111	717.1111111111111	98116.44444444444	769.4444444444445	12.319205813937717	-138.1773427327474	0.0	2087.5555555555557	2037.7777777777778	2583.5555555555557	202.0	178.44444444444446	185.0	180.22222222222223	222176102.8888889
2020-06-30 07:29:53.350	0.0	0.0	0.0	-0.25	3.0	65.0	42.8	-11.2	-82.8	98819.4	351.0	0.1032440796494484	-172.88483428955078	0.0	0.0	-179.9	877.0	97098.8	770.2	33.373724174499515	-146.8899673461914	0.0	2083.6	2035.2	2586.4	203.1	176.2	187.2	176.5	222225265.0
2020-06-30 07:29:53.400	0.0	0.0	0.0	-0.25	3.0	65.0	42.5	-9.25	-85.75	98821.5	351.0	0.10099827963858843	-174.51383590698242	0.0	0.0	108.0	957.25	96179.875	769.0	58.38962984085083	-148.64290809631348	0.0	2086.5	2038.0	2581.5	201.625	174.125	190.0	178.125	222271037.625
2020-06-30 07:29:53.450	0.0	0.0	0.0	0.0	3.909090909090909	65.0	39.54545454545455	-12.818181818181818	-84.0909090909091	98819.18181818182	351.0	0.097871602258899	-175.7371257435192	0.0	0.0	322.27272727272725	1063.7272727272727	95169.81818181818	766.7272727272727	63.94857614690607	-158.46211103959516	0.0	2073.818181818182	2036.7272727272727	2575.6363636363635	195.1818181818182	184.63636363636363	176.36363636363637	189.8181818181818	222322828.27272728
2020-06-30 07:29:53.500	0.0	0.0	0.0	0.0	4.0	65.0	43.0	-11.0	-85.8	98817.2	351.0	0.09262323677539826	-176.58682708740236	0.0	0.0	595.9	1437.9	94486.5	765.4	72.50798034667969	-178.6608413696289	0.0	2078.4	2046.4	2579.6	197.0	183.8	177.6	187.8	222375438.9
2020-06-30 07:29:53.550	0.0	0.0	0.0	0.0	4.0	65.0	37.8	-10.6	-85.8	98818.6	351.0	0.08861326277256013	-178.90331420898437	0.0	0.0	902.7	2387.8	94133.7	764.9	89.35962600708008	-191.96794586181642	0.0	2085.6	2040.4	2580.8	195.8	183.0	185.2	181.6	222425463.4
2020-06-30 07:29:53.600	0.0	0.0	0.0	0.0	4.0	65.0	37.77777777777778	-12.0	-86.0	98819.77777777778	351.0	0.08522983888785045	-179.27904425726996	0.0	0.0	1354.0	3476.1111111111113	93901.0	763.3333333333334	82.64410993787978	-195.56576368543836	0.0	2084.0	2035.5555555555557	2577.777777777778	196.77777777777777	181.66666666666666	190.55555555555554	177.88888888888889	222477460.66666666
2020-06-30 07:29:53.650	0.0	0.0	0.0	0.0	4.0	65.0	34.333333333333336	-10.333333333333334	-86.33333333333333	98816.0	351.0	0.08388276894887288	178.867307027181	0.0	0.0	1449.6666666666667	4252.666666666667	93666.83333333333	762.0	85.50606918334961	-179.15298716227213	0.0	2068.0	2029.3333333333333	2581.3333333333335	194.5	186.83333333333334	187.83333333333334	179.33333333333334	222522226.5
2020-06-30 07:29:53.700	0.0	0.25	0.0	0.0	4.0	65.0	32.7	-10.5	-88.9	98821.3	351.0	0.08331076502799988	176.90206756591797	0.0	0.0	1722.1	4820.3	93503.1	762.9	88.82916717529297	-146.42354049682618	0.0	2083.6	2030.8	2574.8	195.8	181.5	193.3	176.1	222574630.3
2020-06-30 07:29:53.750	0.0	0.25	0.0	0.0	4.0	65.0	31.2	-11.6	-86.8	98817.5	351.0	0.08370624184608459	175.5160888671875	0.0	0.0	1983.3	4926.1	93368.5	764.0	75.76128311157227	-98.25527725219726	0.0	2082.4	2031.6	2574.0	193.9	181.9	190.3	179.2	222625689.3
2020-06-30 07:29:53.800	0.0	0.25	0.0	0.0	4.0	65.0	34.44444444444444	-8.88888888888889	-87.55555555555556	98819.44444444444	351.0	0.08332329077853097	173.72498745388455	0.0	0.0	2189.222222222222	4530.111111111111	93225.11111111111	762.6666666666666	69.0696538289388	-64.89906692504883	0.0	2076.8888888888887	2032.888888888889	2573.777777777778	195.22222222222223	179.88888888888889	188.66666666666666	183.0	222673186.66666666
2020-06-30 07:29:53.850	0.0	0.25	0.0	0.0	4.0	65.0	32.2	-10.4	-85.6	98819.3	351.0	0.07998827770352364	171.57935485839843	0.0	0.0	2316.7	3731.9	93125.3	760.1	65.63812103271485	-65.17143058776855	0.0	2071.2	2042.0	2577.2	200.3	176.1	188.7	183.2	222724233.6
2020-06-30 07:29:53.900	0.0	0.25	0.0	0.0	4.0	65.0	36.125	-5.875	-85.375	98818.375	351.0	0.07913108356297016	169.4370174407959	0.0	0.0	2401.75	2947.5	93022.5	758.25	70.24709129333496	-52.16867637634277	0.0	2092.5	2044.5	2582.5	201.25	176.125	186.25	185.625	222775805.875
2020-06-30 07:29:53.950	0.0	0.25	0.0	0.0	4.0	65.0	39.18181818181818	-8.090909090909092	-84.0909090909091	98825.63636363637	351.0	0.077489973469214	166.9693173495206	0.0	0.0	2390.6363636363635	2331.0	92966.45454545454	757.3636363636364	70.28870218450373	-38.75145842812278	0.0	2072.7272727272725	2047.6363636363637	2580.7272727272725	202.0909090909091	174.9090909090909	187.0	184.1818181818182	222823386.0
