time	leftRight	frontBack	up	angular	State	Battery_level	Magnetometer_x	Magnetometer_y	Magnetometer_z	Pressure	Temperature	Wind_speed	Wind_angle	Wind_compensation:pitch	Wind_compensation:roll	Pitch_y	Roll_x	Yaw_z	Altitude	Velocity_x	Velocity_y	Velocity_z	Acceleration_x	Acceleration_y	Acceleration_z	Motor_1_power	Motor_2_power	Motor_3_power	Motor_4_power	time_board
2016-03-31 12:29:28.885	0.0	0.0	0.0	0.0	7.0	83.0	-60.0	13.0	-88.0	98489.0	531.0	0.0	0.0	0.0	0.0	-5.0	-6.0	-104263.5	0.0	-0.08175914734601974	0.3199619948863983	0.0	2048.0	2048.0	2564.0	70.0	70.0	70.0	70.0	1515942364059.0
2016-03-31 12:29:28.890	0.0	-0.25	0.0	0.0	7.0	83.0	-60.0	13.0	-88.0	98489.0	531.0	0.0	0.0	0.0	0.0	-5.0	-6.0	-104263.5	0.0	-0.08175914734601974	0.3199619948863983	0.0	2048.0	2048.0	2564.0	70.0	70.0	70.0	70.0	1515942364059.0
2016-03-31 12:29:28.895	0.0	-0.25	0.0	0.0	7.0	83.0	-60.0	12.0	-88.0	98492.0	531.0	0.0	0.0	0.0	0.0	-5.0	-6.0	-104264.0	0.0	-0.08258773386478424	0.26335498690605164	0.0	2048.0	2048.0	2564.0	70.0	70.0	70.0	70.0	1515945871459.0
2016-03-31 12:29:28.900	0.0	-0.25	0.0	0.0	7.0	83.0	-59.0	9.0	-97.0	98492.0	531.0	0.0	0.0	0.0	0.0	-6.0	-7.0	-104263.0	0.0	-0.04484352096915245	0.23067653179168698	0.0	2048.0	2048.0	2568.0	70.0	70.0	70.0	70.0	1515948876708.0
2016-03-31 12:29:28.905	0.0	-0.25	0.0	0.0	7.0	83.0	-59.0	9.0	-97.0	98492.0	531.0	0.0	0.0	0.0	0.0	-6.0	-8.0	-104264.0	0.0	0.003189954906702041	0.20105324685573575	0.0	2048.0	2048.0	2564.0	70.0	70.0	70.0	70.0	1515950881561.0
2016-03-31 12:29:28.910	0.0	-0.25	0.0	0.0	7.0	83.0	-58.0	18.0	-94.0	98492.0	531.0	0.0	0.0	0.0	0.0	-7.0	-9.0	-104263.0	0.0	-0.0018368079327046871	0.20793837308883667	0.0	2048.0	2044.0	2568.0	70.0	70.0	70.0	70.0	1515952886566.0
2016-03-31 12:29:28.915	0.0	-0.25	0.0	0.0	7.0	83.0	-58.0	18.0	-94.0	98495.0	531.0	0.0	0.0	0.0	0.0	-7.0	-10.0	-104263.0	0.0	0.012810258194804192	0.25584769248962397	0.0	2048.0	2044.0	2568.0	70.0	70.0	70.0	70.0	1515955891510.0
2016-03-31 12:29:28.920	0.0	-0.25	0.0	0.0	7.0	83.0	-66.0	14.0	-100.0	98489.0	531.0	0.0	0.0	0.0	0.0	-7.0	-11.0	-104264.0	0.0	-0.0003721714019775391	0.3402174115180969	0.0	2048.0	2048.0	2568.0	70.0	70.0	70.0	70.0	1515958897064.0
2016-03-31 12:29:28.925	0.0	-0.25	0.0	0.0	7.0	83.0	-66.0	14.0	-100.0	98486.0	531.0	0.0	0.0	0.0	0.0	-8.0	-13.0	-104264.0	0.0	0.01841134764254093	0.40559029579162603	0.0	2048.0	2048.0	2568.0	70.0	70.0	70.0	70.0	1515960901824.0
2016-03-31 12:29:28.930	0.0	-0.25	0.0	0.0	7.0	83.0	-59.0	17.0	-93.0	98486.0	531.0	0.0	0.0	0.0	0.0	-8.0	-14.0	-104264.0	0.0	0.035406742244958885	0.3900301456451416	0.0	2048.0	2048.0	2568.0	70.0	70.0	70.0	70.0	1515962906616.0
2016-03-31 12:29:28.935	0.0	-0.25	0.0	0.0	7.0	83.0	-59.0	17.0	-93.0	98486.0	531.0	0.0	0.0	0.0	0.0	-8.0	-14.0	-104264.0	0.0	0.04426942765712738	0.3189382553100586	0.0	2048.0	2048.0	2568.0	70.0	70.0	70.0	70.0	1515965911590.0
2016-03-31 12:29:28.940	0.0	-0.25	0.0	0.0	7.0	83.0	-59.0	13.0	-95.0	98492.0	531.0	0.0	0.0	0.0	0.0	-8.0	-14.0	-104265.0	0.0	0.060321927070617676	0.21125175058841705	0.0	2048.0	2048.0	2568.0	70.0	70.0	70.0	70.0	1515967916839.0
2016-03-31 12:29:28.945	0.0	-0.25	0.0	0.0	7.0	83.0	-59.0	13.0	-95.0	98492.0	531.0	0.0	0.0	0.0	0.0	-7.0	-15.0	-104265.0	0.0	0.06131169199943544	0.1475427746772766	0.0	2048.0	2048.0	2568.0	70.0	70.0	70.0	70.0	1515970921600.0
2016-03-31 12:29:28.950	0.0	-0.25	0.0	0.0	7.0	83.0	-59.0	13.0	-91.0	98483.0	531.0	0.0	0.0	0.0	0.0	-7.0	-15.5	-104265.0	0.0	0.07052360102534294	0.10640554130077362	0.0	2048.0	2048.0	2568.0	70.0	70.0	70.0	70.0	1515973929168.0
2016-03-31 12:29:28.955	0.0	-0.25	0.0	0.0	7.0	83.0	-59.0	13.0	-91.0	98483.0	531.0	0.0	0.0	0.0	0.0	-7.0	-15.5	-104265.0	0.0	0.07052360102534294	0.10640554130077362	0.0	2048.0	2048.0	2568.0	70.0	70.0	70.0	70.0	1515973929168.0
2016-03-31 12:29:28.960	0.0	-0.25	0.0	0.0	7.0	83.0	-64.0	12.0	-92.0	98492.0	531.0	0.0	0.0	0.0	0.0	-8.0	-16.0	-104265.0	0.0	0.07362989336252213	0.07175106555223465	0.0	2048.0	2048.0	2568.0	70.0	70.0	70.0	70.0	1515977936676.0
2016-03-31 12:29:28.965	0.0	-0.25	0.0	0.0	7.0	83.0	-64.0	12.0	-92.0	98492.0	531.0	0.0	0.0	0.0	0.0	-9.0	-16.0	-104265.0	0.0	0.07899574935436249	0.02534636482596397	0.0	2048.0	2048.0	2564.0	70.0	70.0	70.0	70.0	1515979941680.0
2016-03-31 12:29:28.970	0.0	-0.25	0.0	0.0	7.0	83.0	-54.0	14.0	-92.0	98492.0	531.0	0.0	0.0	0.0	0.0	-9.0	-16.0	-104266.0	0.0	0.0776410698890686	0.03323623538017273	0.0	2048.0	2044.0	2568.0	70.0	70.0	70.0	70.0	1515982946716.0
2016-03-31 12:29:28.975	0.0	-0.25	0.0	0.0	7.0	83.0	-54.0	14.0	-92.0	98492.0	531.0	0.0	0.0	0.0	0.0	-9.0	-16.0	-104266.0	0.0	0.08017905056476593	0.05005955323576927	0.0	2048.0	2048.0	2564.0	70.0	70.0	70.0	70.0	1515984951721.0
2016-03-31 12:29:28.980	0.0	-0.25	0.0	0.0	7.0	83.0	-63.0	7.0	-97.0	98495.0	531.0	0.0	0.0	0.0	0.0	-9.0	-17.0	-104266.0	0.0	0.08187976479530333	0.1061042547225952	0.0	2048.0	2048.0	2564.0	70.0	70.0	70.0	70.0	1515987956878.0
2016-03-31 12:29:28.985	0.0	-0.25	0.0	0.0	7.0	83.0	-63.0	7.0	-97.0	98501.0	531.0	0.0	0.0	0.0	0.0	-10.0	-18.0	-104266.0	0.0	0.08638231456279755	0.11247722059488297	0.0	2048.0	2048.0	2564.0	70.0	70.0	70.0	70.0	1515989962158.0
2016-03-31 12:29:28.990	0.0	-0.25	0.0	0.0	7.0	83.0	-56.0	12.0	-92.0	98504.0	531.0	0.0	0.0	0.0	0.0	-10.0	-18.0	-104266.0	0.0	0.058146558701992035	0.08158205449581146	0.0	2044.0	2048.0	2564.0	70.0	70.0	70.0	70.0	1515992967010.0
2016-03-31 12:29:28.995	0.0	-0.25	0.0	0.0	7.0	83.0	-56.0	12.0	-92.0	98501.0	531.0	0.0	0.0	0.0	0.0	-10.0	-19.0	-104266.0	0.0	-0.010915108025074005	0.025101615116000172	0.0	2044.0	2048.0	2564.0	70.0	70.0	70.0	70.0	1515994971740.0
2016-03-31 12:29:29.000	0.0	-0.25	0.0	0.0	7.0	83.0	-56.0	10.0	-96.0	98486.0	531.0	0.0	0.0	0.0	0.0	-12.0	-18.0	-104265.0	0.0	-0.1523488163948059	-0.04453015327453613	0.0	2044.0	2048.0	2568.0	70.0	70.0	70.0	70.0	1515996976837.0
2016-03-31 12:29:29.005	0.0	-0.25	0.0	0.0	7.0	83.0	-56.0	10.0	-96.0	98483.0	531.0	0.0	0.0	0.0	0.0	-13.0	-19.0	-104265.0	0.0	-0.28122472763061523	-0.05993792042136192	0.0	2048.0	2048.0	2568.0	70.0	70.0	70.0	70.0	1515999981842.0
2016-03-31 12:29:29.010	0.0	-0.25	0.0	0.0	7.0	83.0	-57.0	11.0	-91.0	98489.0	531.0	0.0	0.0	0.0	0.0	-15.0	-18.0	-104265.0	0.0	-0.3613322973251343	-0.092337504029274	0.0	2048.0	2048.0	2568.0	70.0	70.0	70.0	70.0	1516001986846.0
2016-03-31 12:29:29.015	0.0	-0.25	0.0	0.0	7.0	83.0	-58.5	12.5	-89.5	98490.5	531.0	0.0	0.0	0.0	0.0	-15.0	-19.0	-104266.0	0.0	-0.28289830684661865	-0.1092798113822937	0.0	2048.0	2048.0	2568.0	70.0	70.0	70.0	70.0	1516005994552.0
2016-03-31 12:29:29.020	0.0	-0.25	0.0	0.0	7.0	83.0	-58.5	12.5	-89.5	98490.5	531.0	0.0	0.0	0.0	0.0	-15.0	-19.0	-104266.0	0.0	-0.28289830684661865	-0.1092798113822937	0.0	2048.0	2048.0	2568.0	70.0	70.0	70.0	70.0	1516005994552.0
2016-03-31 12:29:29.025	0.0	-0.25	0.0	0.0	7.0	83.0	-60.0	14.0	-88.0	98486.0	531.0	0.0	0.0	0.0	0.0	-15.0	-19.0	-104266.0	0.0	-0.14794091880321505	-0.14502209424972534	0.0	2048.0	2048.0	2568.0	70.0	70.0	70.0	70.0	1516544001892.0
2016-03-31 12:29:29.030	0.0	-0.25	0.0	0.0	7.0	83.0	-58.0	18.0	-90.0	98492.0	531.0	0.0	0.0	0.0	0.0	-15.0	-19.0	-104266.0	0.0	-0.08305273205041885	-0.15522994101047516	0.0	2048.0	2048.0	2568.0	70.0	70.0	70.0	70.0	1516547006866.0
2016-03-31 12:29:29.035	0.0	-0.25	0.0	0.0	7.0	83.0	-58.0	18.0	-90.0	98495.0	531.0	0.0	0.0	0.0	0.0	-15.0	-20.0	-104266.0	0.0	-0.07630214840173721	-0.17193099856376648	0.0	2048.0	2048.0	2568.0	70.0	70.0	70.0	70.0	1516549011901.0
2016-03-31 12:29:29.040	0.0	-0.25	0.0	0.0	7.0	83.0	-60.0	12.0	-90.0	98495.0	531.0	0.0	0.0	0.0	0.0	-14.0	-20.0	-104266.0	0.0	-0.04622350260615349	-0.17593702673912048	0.0	2048.0	2048.0	2568.0	70.0	70.0	70.0	70.0	1516552016876.0
2016-03-31 12:29:29.045	0.0	-0.25	0.0	0.0	7.0	83.0	-60.0	12.0	-90.0	98492.0	531.0	0.0	0.0	0.0	0.0	-14.0	-20.0	-104266.0	0.0	-0.01921369880437851	-0.1875154674053192	0.0	2048.0	2048.0	2568.0	70.0	70.0	70.0	70.0	1516554021850.0
2016-03-31 12:29:29.050	0.0	-0.25	0.0	0.0	7.0	83.0	-54.0	10.0	-98.0	98486.0	531.0	0.0	0.0	0.0	0.0	-14.0	-20.0	-104267.0	0.0	0.02106618694961071	-0.19709382951259613	0.0	2048.0	2048.0	2568.0	70.0	70.0	70.0	70.0	1516557027191.0
2016-03-31 12:29:29.055	0.0	-0.25	0.0	0.0	7.0	83.0	-56.5	12.5	-94.5	98486.0	531.0	0.0	0.0	0.0	0.0	-14.0	-20.0	-104267.0	0.0	0.057315507903695107	-0.20778760313987732	0.0	2048.0	2048.0	2568.0	70.0	70.0	70.0	70.0	1516560534652.5
2016-03-31 12:29:29.060	0.0	-0.25	0.0	0.0	7.0	83.0	-56.5	12.5	-94.5	98486.0	531.0	0.0	0.0	0.0	0.0	-14.0	-20.0	-104267.0	0.0	0.057315507903695107	-0.20778760313987732	0.0	2048.0	2048.0	2568.0	70.0	70.0	70.0	70.0	1516560534652.5
2016-03-31 12:29:29.065	0.0	-0.25	0.0	0.0	7.0	83.0	-59.0	15.0	-91.0	98486.0	531.0	0.0	0.0	0.0	0.0	-14.0	-20.0	-104267.0	0.0	0.0805133655667305	-0.2163211852312088	0.0	2048.0	2048.0	2568.0	70.0	70.0	70.0	70.0	1516564041992.0
2016-03-31 12:29:29.070	0.0	-0.25	0.0	0.0	7.0	83.0	-57.0	13.0	-95.0	98489.0	531.0	0.0	0.0	0.0	0.0	-14.0	-20.0	-104267.0	0.0	0.09300366044044496	-0.2222718447446823	0.0	2048.0	2048.0	2568.0	70.0	70.0	70.0	70.0	1516566047027.0
2016-03-31 12:29:29.075	0.0	-0.25	0.0	0.0	7.0	83.0	-57.0	13.0	-95.0	98492.0	531.0	0.0	0.0	0.0	0.0	-14.0	-21.0	-104267.0	0.0	0.10990600287914276	-0.22712144255638125	0.0	2048.0	2048.0	2568.0	70.0	70.0	70.0	70.0	1516569052001.0
2016-03-31 12:29:29.080	0.0	-0.25	0.0	0.0	7.0	83.0	-60.0	10.0	-84.0	98487.5	531.0	0.0	0.0	0.0	0.0	-14.5	-21.0	-104266.5	0.0	0.13239224255084991	-0.23264554142951968	0.0	2048.0	2048.0	2568.0	70.0	70.0	70.0	70.0	1516572559753.0
2016-03-31 12:29:29.085	0.0	-0.25	0.0	0.0	7.0	83.0	-60.0	10.0	-84.0	98487.5	531.0	0.0	0.0	0.0	0.0	-14.5	-21.0	-104266.5	0.0	0.13239224255084991	-0.23264554142951968	0.0	2048.0	2048.0	2568.0	70.0	70.0	70.0	70.0	1516572559753.0
2016-03-31 12:29:29.090	0.0	-0.25	0.0	0.0	7.0	83.0	-58.0	10.0	-94.0	98489.0	531.0	0.0	0.0	0.0	0.0	-15.0	-22.0	-104266.0	0.0	0.15240046381950378	-0.23795464634895325	0.0	2048.0	2048.0	2568.0	70.0	70.0	70.0	70.0	1516576067047.0
2016-03-31 12:29:29.095	0.0	-0.25	0.0	0.0	7.0	83.0	-58.0	10.0	-94.0	98489.0	531.0	0.0	0.0	0.0	0.0	-15.0	-22.0	-104266.0	0.0	0.16377662122249606	-0.2421814203262329	0.0	2048.0	2048.0	2568.0	70.0	70.0	70.0	70.0	1516579072082.0
2016-03-31 12:29:29.100	0.0	-0.25	0.0	0.0	7.0	83.0	-57.0	15.0	-93.0	98480.0	531.0	0.0	0.0	0.0	0.0	-15.0	-22.0	-104266.0	0.0	0.17548544704914093	-0.24657759070396426	0.0	2048.0	2048.0	2568.0	70.0	70.0	70.0	70.0	1516581077270.0
2016-03-31 12:29:29.105	0.0	-0.25	0.0	0.0	7.0	83.0	-57.5	13.5	-94.5	98487.5	531.0	0.0	0.0	0.0	0.0	-15.0	-22.0	-104265.5	0.0	0.18993721157312396	-0.2526402324438095	0.0	2048.0	2048.0	2568.0	70.0	70.0	70.0	70.0	1516585084609.5
2016-03-31 12:29:29.110	0.0	-0.25	0.0	0.0	7.0	83.0	-57.5	13.5	-94.5	98487.5	531.0	0.0	0.0	0.0	0.0	-15.0	-22.0	-104265.5	0.0	0.18993721157312396	-0.2526402324438095	0.0	2048.0	2048.0	2568.0	70.0	70.0	70.0	70.0	1516585084609.5
2016-03-31 12:29:29.115	0.0	-0.25	0.0	0.0	7.0	83.0	-58.0	12.0	-96.0	98489.0	531.0	0.0	0.0	0.0	0.0	-15.0	-23.0	-104265.0	0.0	0.20064149796962735	-0.2577869892120361	0.0	2048.0	2048.0	2568.0	70.0	70.0	70.0	70.0	1516589092315.0
2016-03-31 12:29:29.120	0.0	-0.25	0.0	0.0	7.0	83.0	-53.0	13.0	-95.0	98480.0	531.0	0.0	0.0	0.0	0.0	-15.0	-22.0	-104266.0	0.0	0.20662404596805573	-0.26112815737724304	0.0	2048.0	2048.0	2568.0	70.0	70.0	70.0	70.0	1516592099731.0
2016-03-31 12:29:29.125	0.0	-0.25	0.0	0.0	7.0	83.0	-53.0	13.0	-95.0	98480.0	531.0	0.0	0.0	0.0	0.0	-15.0	-22.0	-104266.0	0.0	0.20662404596805573	-0.26112815737724304	0.0	2048.0	2048.0	2568.0	70.0	70.0	70.0	70.0	1516592099731.0
2016-03-31 12:29:29.130	0.0	-0.25	0.0	0.0	7.0	83.0	-63.0	13.0	-89.0	98489.0	531.0	0.0	0.0	0.0	0.0	-16.0	-22.0	-104266.0	0.0	0.17422813177108765	-0.2639871835708618	0.0	2044.0	2048.0	2568.0	70.0	70.0	70.0	70.0	1516596107299.0
2016-03-31 12:29:29.135	0.0	-0.25	0.0	0.0	7.0	83.0	-63.0	13.0	-89.0	98489.0	531.0	0.0	0.0	0.0	0.0	-16.0	-22.0	-104266.0	0.0	0.13586010038852692	-0.2656794488430023	0.0	2048.0	2048.0	2564.0	70.0	70.0	70.0	70.0	1516598112243.0
2016-03-31 12:29:29.140	0.0	-0.25	0.0	0.0	7.0	83.0	-56.0	14.0	-94.0	98486.0	531.0	0.0	0.0	0.0	0.0	-17.0	-23.0	-104266.0	0.0	0.06447002291679382	-0.2681281566619873	0.0	2048.0	2048.0	2564.0	70.0	70.0	70.0	70.0	1516601117309.0
2016-03-31 12:29:29.145	0.0	-0.25	0.0	0.0	7.0	83.0	-57.5	13.5	-91.5	98486.0	531.0	0.0	0.0	0.0	0.0	-17.0	-23.0	-104266.0	0.0	0.051874713972210884	-0.2683909833431244	0.0	2048.0	2048.0	2564.0	70.0	70.0	70.0	70.0	1516604624755.0
2016-03-31 12:29:29.150	0.0	-0.25	0.0	0.0	7.0	83.0	-57.5	13.5	-91.5	98486.0	531.0	0.0	0.0	0.0	0.0	-17.0	-23.0	-104266.0	0.0	0.051874713972210884	-0.2683909833431244	0.0	2048.0	2048.0	2564.0	70.0	70.0	70.0	70.0	1516604624755.0
2016-03-31 12:29:29.155	0.0	-0.25	0.0	0.0	7.0	83.0	-59.0	13.0	-89.0	98492.0	531.0	0.0	0.0	0.0	0.0	-17.0	-24.0	-104267.0	0.0	0.09738339483737946	-0.2673782110214233	0.0	2048.0	2048.0	2564.0	70.0	70.0	70.0	70.0	1516608132232.0
2016-03-31 12:29:29.160	0.0	-0.25	0.0	0.0	7.0	83.0	-59.0	13.0	-93.0	98492.0	531.0	0.0	0.0	0.0	0.0	-17.0	-24.5	-104267.0	0.0	0.14661633223295212	-0.2685736566781998	0.0	2048.0	2048.0	2564.0	70.0	70.0	70.0	70.0	1516612139862.0
2016-03-31 12:29:29.165	0.0	-0.25	0.0	0.0	7.0	83.0	-59.0	13.0	-93.0	98492.0	531.0	0.0	0.0	0.0	0.0	-17.0	-24.5	-104267.0	0.0	0.14661633223295212	-0.2685736566781998	0.0	2048.0	2048.0	2564.0	70.0	70.0	70.0	70.0	1516612139862.0
2016-03-31 12:29:29.170	0.0	-0.25	0.0	0.0	7.0	83.0	-65.0	11.0	-91.0	98486.0	531.0	0.0	0.0	0.0	0.0	-17.0	-25.0	-104267.0	0.0	0.16403669118881226	-0.2730225920677185	0.0	2048.0	2048.0	2568.0	70.0	70.0	70.0	70.0	1516615147308.0
2016-03-31 12:29:29.175	0.0	-0.25	0.0	0.0	7.0	83.0	-65.0	11.0	-91.0	98489.0	531.0	0.0	0.0	0.0	0.0	-18.0	-25.0	-104267.0	0.0	0.15539339184761047	-0.27775639295578003	0.0	2048.0	2048.0	2568.0	70.0	70.0	70.0	70.0	1516618152252.0
2016-03-31 12:29:29.180	0.0	-0.25	0.0	0.0	7.0	83.0	-56.0	14.0	-94.0	98492.0	531.0	0.0	0.0	0.0	0.0	-18.0	-26.0	-104267.0	0.0	0.1854870840907097	-0.28291501104831696	0.0	2048.0	2048.0	2568.0	70.0	70.0	70.0	70.0	1516622160110.0
2016-03-31 12:29:29.185	0.0	-0.25	0.0	0.0	7.0	83.0	-56.0	14.0	-94.0	98492.0	531.0	0.0	0.0	0.0	0.0	-18.0	-26.0	-104267.0	0.0	0.1854870840907097	-0.28291501104831696	0.0	2048.0	2048.0	2568.0	70.0	70.0	70.0	70.0	1516622160110.0
2016-03-31 12:29:29.190	0.0	-0.25	0.0	0.0	7.0	83.0	-63.0	17.0	-95.0	98492.0	531.0	0.0	0.0	0.0	0.0	-18.0	-27.0	-104267.0	0.0	0.19955945014953613	-0.288023054599762	0.0	2048.0	2048.0	2568.0	70.0	70.0	70.0	70.0	1516625167358.0
2016-03-31 12:29:29.195	0.0	-0.25	0.0	0.0	7.0	83.0	-63.0	17.0	-95.0	98492.0	531.0	0.0	0.0	0.0	0.0	-18.0	-28.0	-104267.0	0.0	0.21182917058467865	-0.2908641695976257	0.0	2048.0	2048.0	2568.0	70.0	70.0	70.0	70.0	1516628172363.0
2016-03-31 12:29:29.200	0.0	-0.25	0.0	0.0	7.0	83.0	-64.0	12.0	-92.0	98495.0	531.0	0.0	0.0	0.0	0.0	-19.0	-28.0	-104267.0	0.0	0.1755038946866989	-0.29529619216918945	0.0	2044.0	2048.0	2568.0	70.0	70.0	70.0	70.0	1516630177429.0
2016-03-31 12:29:29.205	0.0	-0.25	0.0	0.0	7.0	83.0	-64.0	12.0	-92.0	98492.0	531.0	0.0	0.0	0.0	0.0	-19.0	-28.0	-104268.0	0.0	0.10650356113910676	-0.3005630373954773	0.0	2044.0	2048.0	2568.0	70.0	70.0	70.0	70.0	1516633182403.0
2016-03-31 12:29:29.210	0.0	-0.25	0.0	0.0	7.0	83.0	-60.0	16.0	-96.0	98489.0	531.0	0.0	0.0	0.0	0.0	-21.0	-29.0	-104268.0	0.0	-0.0383186899125576	-0.3086983263492584	0.0	2044.0	2048.0	2564.0	70.0	70.0	70.0	70.0	1516635187377.0
2016-03-31 12:29:29.215	0.0	-0.25	0.0	0.0	7.0	83.0	-60.0	16.0	-96.0	98492.0	531.0	0.0	0.0	0.0	0.0	-23.0	-29.0	-104269.0	0.0	-0.2080555111169815	-0.31752246618270874	0.0	2044.0	2048.0	2564.0	70.0	70.0	70.0	70.0	1516638192626.0
2016-03-31 12:29:29.220	0.0	-0.25	0.0	0.0	7.0	83.0	-58.0	10.0	-92.0	98492.0	531.0	0.0	0.0	0.0	0.0	-24.0	-29.0	-104269.0	0.0	-0.3665336966514587	-0.3259138166904449	0.0	2044.0	2048.0	2564.0	70.0	70.0	70.0	70.0	1516640197845.0
2016-03-31 12:29:29.225	0.0	-0.25	0.0	0.0	7.0	83.0	-58.0	10.0	-92.0	98492.0	531.0	0.0	0.0	0.0	0.0	-24.0	-29.0	-104269.0	0.0	-0.3665336966514587	-0.3259138166904449	0.0	2044.0	2048.0	2564.0	70.0	70.0	70.0	70.0	1516640197845.0
2016-03-31 12:29:29.230	0.0	-0.25	0.0	0.0	7.0	83.0	-58.0	10.0	-92.0	98489.0	531.0	0.0	0.0	0.0	0.0	-26.0	-29.0	-104269.0	0.0	-0.4925987720489502	-0.3326290547847748	0.0	2044.0	2048.0	2564.0	70.0	70.0	70.0	70.0	1516642202484.0
2016-03-31 12:29:29.235	0.0	-0.25	0.0	0.0	7.0	83.0	-61.0	13.0	-97.0	98495.0	531.0	0.0	0.0	0.0	0.0	-27.5	-30.0	-104268.0	0.0	-0.6083899736404419	-0.33871401846408844	0.0	2044.0	2048.0	2566.0	70.0	70.0	70.0	70.0	1516646209945.0
2016-03-31 12:29:29.240	0.0	-0.25	0.0	0.0	7.0	83.0	-59.0	11.0	-91.0	98489.0	531.0	0.0	0.0	0.0	0.0	-29.5	-30.0	-104269.0	0.0	-0.7341922521591187	-0.3437459021806717	0.0	2046.0	2048.0	2568.0	70.0	70.0	70.0	70.0	1516651220016.0
2016-03-31 12:29:29.245	0.0	-0.25	0.0	0.0	7.0	83.0	-59.0	11.0	-91.0	98489.0	531.0	0.0	0.0	0.0	0.0	-29.5	-30.0	-104269.0	0.0	-0.7341922521591187	-0.3437459021806717	0.0	2046.0	2048.0	2568.0	70.0	70.0	70.0	70.0	1516651220016.0
2016-03-31 12:29:29.250	0.0	-0.25	0.0	0.0	7.0	83.0	-59.0	13.0	-87.0	98486.0	531.0	0.0	0.0	0.0	0.0	-31.0	-30.0	-104269.0	0.0	-0.7345151305198669	-0.3429956138134003	0.0	2048.0	2048.0	2568.0	70.0	70.0	70.0	70.0	1516655227630.0
2016-03-31 12:29:29.255	0.0	-0.25	0.0	0.0	7.0	83.0	-59.0	13.0	-87.0	98486.0	531.0	0.0	0.0	0.0	0.0	-31.0	-30.0	-104269.0	0.0	-0.7345151305198669	-0.3429956138134003	0.0	2048.0	2048.0	2568.0	70.0	70.0	70.0	70.0	1516655227630.0
2016-03-31 12:29:29.260	0.0	-0.25	0.0	0.0	7.0	83.0	-59.0	13.0	-87.0	98489.0	531.0	0.0	0.0	0.0	0.0	-31.0	-30.0	-104268.0	0.0	-0.6626114845275879	-0.33974897861480713	0.0	2044.0	2048.0	2564.0	70.0	70.0	70.0	70.0	1516657232543.0
2016-03-31 12:29:29.265	0.0	-0.25	0.0	0.0	7.0	83.0	-59.0	13.0	-87.0	98489.0	531.0	0.0	0.0	0.0	0.0	-31.0	-30.0	-104268.0	0.0	-0.6626114845275879	-0.33974897861480713	0.0	2044.0	2048.0	2564.0	70.0	70.0	70.0	70.0	1516657232543.0
2016-03-31 12:29:29.270	0.0	-0.25	0.0	0.0	7.0	83.0	-62.0	12.0	-88.0	98495.0	531.0	0.0	0.0	0.0	0.0	-32.0	-32.0	-104270.0	0.0	-0.5436635017395021	-0.3341960310935974	0.0	2044.0	2056.0	2564.0	70.0	70.0	70.0	70.0	1516662242797.0
2016-03-31 12:29:29.275	0.0	-0.25	0.0	0.0	7.0	83.0	-53.0	-3.0	-93.0	98495.0	531.0	0.0	0.0	0.0	0.0	-34.0	-29.0	-104277.0	0.0	-0.4629748165607453	-0.4131781756877899	0.0	2052.0	2056.0	2564.0	70.0	70.0	70.0	70.0	1516664247589.0
2016-03-31 12:29:29.280	0.0	-0.25	0.0	0.0	7.0	83.0	-54.5	0.5	-91.5	98490.5	531.0	0.0	0.0	0.0	0.0	-34.5	-25.5	-104280.0	0.0	-0.27410830557346344	-0.6784082055091858	0.0	2050.0	2048.0	2564.0	70.0	70.0	70.0	70.0	1516668255294.0
2016-03-31 12:29:29.285	0.0	-0.25	0.0	0.0	7.0	83.0	-56.0	4.0	-90.0	98492.0	531.0	0.0	0.0	0.0	0.0	-30.0	-25.0	-104269.0	0.0	0.11862000077962875	-0.7538695931434631	0.0	2056.0	2044.0	2564.0	70.0	70.0	70.0	70.0	1516672262634.0
2016-03-31 12:29:29.290	0.0	-0.25	0.0	0.0	7.0	83.0	-48.0	12.0	-92.0	98498.0	531.0	0.0	0.0	0.0	0.0	-27.0	-27.0	-104255.0	0.0	0.2835224866867065	-0.7169123888015747	0.0	2044.0	2048.0	2564.0	70.0	70.0	70.0	70.0	1516674267669.0
2016-03-31 12:29:29.295	0.0	-0.25	0.0	0.0	7.0	83.0	-48.0	12.0	-92.0	98495.0	531.0	0.0	0.0	0.0	0.0	-27.0	-28.0	-104257.0	0.0	0.4595202207565308	-0.5221841335296631	0.0	2048.0	2052.0	2568.0	70.0	70.0	70.0	70.0	1516677272644.0
2016-03-31 12:29:29.300	0.0	-0.25	0.0	0.0	7.0	83.0	-72.0	16.0	-92.0	98483.0	531.0	0.0	0.0	0.0	0.0	-25.0	-30.0	-104264.0	0.0	0.3654709160327912	-0.4638741314411163	0.0	2048.0	2044.0	2572.0	70.0	70.0	70.0	70.0	1516679277862.0
2016-03-31 12:29:29.305	0.0	-0.25	0.0	0.0	7.0	83.0	-72.0	16.0	-92.0	98483.0	531.0	0.0	0.0	0.0	0.0	-29.0	-25.0	-104283.0	0.0	0.4367848634719849	-0.511647641658783	0.0	2056.0	2052.0	2568.0	70.0	70.0	70.0	70.0	1516682282714.0
2016-03-31 12:29:29.310	0.0	-0.25	0.0	0.0	7.0	83.0	-96.0	6.0	-84.0	98478.0	531.0	0.0	0.0	0.0	0.0	-15.5	-28.0	-104304.5	0.0	0.5700237900018692	-0.6412003487348557	0.0	2048.0	2058.0	2560.0	70.0	70.0	70.0	70.0	1516685790405.0
2016-03-31 12:29:29.315	0.0	-0.25	0.0	0.0	7.0	83.0	-96.0	6.0	-84.0	98478.0	531.0	0.0	0.0	0.0	0.0	-15.5	-28.0	-104304.5	0.0	0.5700237900018692	-0.6412003487348557	0.0	2048.0	2058.0	2560.0	70.0	70.0	70.0	70.0	1516685790405.0
2016-03-31 12:29:29.320	0.0	-0.25	0.0	0.0	7.0	83.0	-77.0	-9.0	-83.0	98498.0	531.0	0.0	0.0	0.0	0.0	0.0	-23.0	-104320.0	0.0	0.8405752182006836	-0.9623627066612244	0.0	2052.0	2056.0	2552.0	70.0	70.0	70.0	70.0	1516689297790.0
2016-03-31 12:29:29.325	0.0	-0.25	0.0	0.0	7.0	83.0	-77.0	-9.0	-83.0	98498.0	531.0	0.0	0.0	0.0	0.0	8.0	-18.0	-104316.0	0.0	0.7916538715362549	-1.3528494834899902	0.0	2052.0	2040.0	2580.0	70.0	70.0	70.0	70.0	1516691302764.0
2016-03-31 12:29:29.330	0.0	-0.25	0.0	0.0	7.0	83.0	-61.0	5.0	-95.0	98501.0	531.0	0.0	0.0	0.0	0.0	4.0	-8.0	-104338.0	0.0	0.8114237189292908	-1.6778322458267212	0.0	2044.0	2068.0	2576.0	70.0	70.0	70.0	70.0	1516694307800.0
2016-03-31 12:29:29.335	0.0	-0.25	0.0	0.0	7.0	83.0	-61.0	5.0	-95.0	98501.0	531.0	0.0	0.0	0.0	0.0	0.0	-6.0	-104365.0	0.0	0.777684211730957	-1.7321237325668335	0.0	2060.0	2056.0	2580.0	70.0	70.0	70.0	70.0	1516696312713.0
2016-03-31 12:29:29.340	0.0	-0.25	0.0	0.0	7.0	83.0	-103.0	11.0	-89.0	98480.0	531.0	0.0	0.0	0.0	0.0	-20.0	-7.0	-104401.0	0.0	0.6557587385177612	-2.021622896194458	0.0	2028.0	2052.0	2560.0	70.0	70.0	70.0	70.0	1516699317901.0
2016-03-31 12:29:29.345	0.0	-0.25	0.0	0.0	7.0	83.0	-103.0	11.0	-89.0	98480.0	531.0	0.0	0.0	0.0	0.0	-20.0	-7.0	-104401.0	0.0	0.6557587385177612	-2.021622896194458	0.0	2028.0	2052.0	2560.0	70.0	70.0	70.0	70.0	1516699317901.0
2016-03-31 12:29:29.350	0.0	-0.25	0.0	0.0	7.0	83.0	-97.5	6.5	-89.5	98489.0	531.0	0.0	0.0	0.0	0.0	-42.5	-12.5	-104443.5	0.0	0.5982696861028671	-2.095092535018921	0.0	2052.0	2048.0	2560.0	70.0	70.0	70.0	70.0	1516702825515.0
2016-03-31 12:29:29.355	0.0	-0.25	0.0	0.0	7.0	83.0	-88.5	1.5	-85.5	98492.0	531.0	0.0	0.0	0.0	0.0	-33.5	-24.0	-104438.0	0.0	0.578417032957077	-1.6812447905540466	0.0	2048.0	2040.0	2574.0	70.0	70.0	70.0	70.0	1516707335372.5
2016-03-31 12:29:29.360	0.0	-0.25	0.0	0.0	7.0	83.0	-88.5	1.5	-85.5	98492.0	531.0	0.0	0.0	0.0	0.0	-33.5	-24.0	-104438.0	0.0	0.578417032957077	-1.6812447905540466	0.0	2048.0	2040.0	2574.0	70.0	70.0	70.0	70.0	1516707335372.5
2016-03-31 12:29:29.365	0.0	-0.25	0.0	0.0	7.0	83.0	-85.0	1.0	-81.0	98486.0	531.0	0.0	0.0	0.0	0.0	-13.0	-29.0	-104417.0	0.0	0.7311484217643738	-0.9613687992095948	0.0	2052.0	2052.0	2568.0	70.0	70.0	70.0	70.0	1516711342864.0
2016-03-31 12:29:29.370	0.0	-0.25	0.0	0.0	7.0	83.0	-54.0	-6.0	-98.0	98498.0	531.0	0.0	0.0	0.0	0.0	-17.0	-18.0	-104417.0	0.0	0.9457576274871826	-0.2324374169111252	0.0	2048.0	2024.0	2556.0	70.0	70.0	70.0	70.0	1516713347839.0
2016-03-31 12:29:29.375	0.0	-0.25	0.0	0.0	7.0	83.0	-54.0	-6.0	-98.0	98498.0	531.0	0.0	0.0	0.0	0.0	-24.0	-25.0	-104416.0	0.0	0.8607497215270996	0.08822395652532578	0.0	2056.0	2032.0	2556.0	70.0	70.0	70.0	70.0	1516716353118.0
2016-03-31 12:29:29.380	0.0	-0.25	0.0	0.0	7.0	83.0	-54.0	-6.0	-98.0	98498.0	531.0	0.0	0.0	0.0	0.0	-24.0	-25.0	-104416.0	0.0	0.8607497215270996	0.08822395652532578	0.0	2056.0	2032.0	2556.0	70.0	70.0	70.0	70.0	1516716353118.0
2016-03-31 12:29:29.385	0.0	-0.25	0.0	0.0	7.0	83.0	-94.0	16.0	-96.0	98489.0	531.0	0.0	0.0	0.0	0.0	-33.0	-22.0	-104420.0	0.0	1.209463119506836	0.7188118100166321	0.0	2068.0	2032.0	2564.0	70.0	70.0	70.0	70.0	1516718358367.0
2016-03-31 12:29:29.390	0.0	-0.25	0.0	0.0	7.0	83.0	-94.0	16.0	-96.0	98492.0	531.0	0.0	0.0	0.0	0.0	-23.0	-33.0	-104417.0	0.0	1.3151973485946655	1.4567852020263672	0.0	2052.0	2036.0	2584.0	70.0	70.0	70.0	70.0	1516721363067.0
2016-03-31 12:29:29.395	0.0	-0.25	0.0	0.0	7.0	83.0	-99.0	17.0	-89.0	98492.0	531.0	0.0	0.0	0.0	0.0	-15.5	-35.5	-104417.5	0.0	1.5708633661270142	2.041671335697174	0.0	2038.0	2054.0	2580.0	70.0	70.0	70.0	70.0	1516724870513.0
2016-03-31 12:29:29.400	0.0	-0.25	0.0	0.0	7.0	83.0	-64.0	-4.0	-90.0	98489.0	531.0	0.0	0.0	0.0	0.0	-21.0	-42.0	-104429.0	0.0	1.0841531753540041	1.6734888553619385	0.0	2052.0	2048.0	2564.0	70.0	70.0	70.0	70.0	1516728377990.0
2016-03-31 12:29:29.405	0.0	-0.25	0.0	0.0	7.0	83.0	-64.0	-4.0	-90.0	98489.0	531.0	0.0	0.0	0.0	0.0	-21.0	-42.0	-104429.0	0.0	1.0841531753540041	1.6734888553619385	0.0	2052.0	2048.0	2564.0	70.0	70.0	70.0	70.0	1516728377990.0
2016-03-31 12:29:29.410	0.0	-0.25	0.0	0.0	7.0	83.0	-64.0	-4.0	-90.0	98486.0	531.0	0.0	0.0	0.0	0.0	-31.0	-39.0	-104435.0	0.0	0.4806941747665405	1.2057267427444458	0.0	2032.0	2044.0	2556.0	70.0	70.0	70.0	70.0	1516731383148.0
2016-03-31 12:29:29.415	0.0	-0.25	0.0	0.0	7.0	83.0	-81.0	5.0	-97.0	98489.0	531.0	0.0	0.0	0.0	0.0	-25.0	-42.5	-104426.0	0.0	0.043584611266851425	0.8385816514492035	0.0	2052.0	2046.0	2570.0	70.0	70.0	70.0	70.0	1516734390701.0
2016-03-31 12:29:29.420	0.0	-0.25	0.0	0.0	7.0	83.0	-110.0	16.0	-90.0	98496.5	531.0	0.0	0.0	0.0	0.0	-6.5	-42.0	-104394.0	0.0	0.1389622911810875	1.0090460777282715	0.0	2044.0	2048.0	2572.0	70.0	70.0	70.0	70.0	1516739400634.5
2016-03-31 12:29:29.425	0.0	-0.25	0.0	0.0	7.0	83.0	-110.0	16.0	-90.0	98496.5	531.0	0.0	0.0	0.0	0.0	-6.5	-42.0	-104394.0	0.0	0.1389622911810875	1.0090460777282715	0.0	2044.0	2048.0	2572.0	70.0	70.0	70.0	70.0	1516739400634.5
2016-03-31 12:29:29.430	0.0	-0.25	0.0	0.0	7.0	83.0	-55.0	-11.0	-93.0	98486.0	531.0	0.0	0.0	0.0	0.0	-8.0	-43.0	-104386.0	0.0	0.15100210905075073	0.9390634298324584	0.0	2052.0	2048.0	2568.0	70.0	70.0	70.0	70.0	1516743408020.0
2016-03-31 12:29:29.435	0.0	-0.25	0.0	0.0	7.0	83.0	-55.0	-11.0	-93.0	98483.0	531.0	0.0	0.0	0.0	0.0	-14.0	-44.0	-104394.0	0.0	0.21177534759044647	0.7639340162277222	0.0	2056.0	2044.0	2564.0	70.0	70.0	70.0	70.0	1516745412963.0
2016-03-31 12:29:29.440	0.0	-0.25	0.0	0.0	7.0	83.0	-96.0	20.0	-86.0	98486.0	531.0	0.0	0.0	0.0	0.0	-18.0	-43.0	-104403.0	0.0	0.25550708174705505	0.6828570961952211	0.0	2052.0	2044.0	2564.0	70.0	70.0	70.0	70.0	1516748418212.0
2016-03-31 12:29:29.445	0.0	-0.25	0.0	0.0	7.0	83.0	-96.0	20.0	-86.0	98486.0	531.0	0.0	0.0	0.0	0.0	-18.0	-43.0	-104403.0	0.0	0.25550708174705505	0.6828570961952211	0.0	2052.0	2044.0	2564.0	70.0	70.0	70.0	70.0	1516748418212.0
2016-03-31 12:29:29.450	0.0	-0.25	0.0	0.0	7.0	83.0	-96.0	20.0	-86.0	98489.0	531.0	0.0	0.0	0.0	0.0	-17.0	-44.0	-104407.0	0.0	0.637768030166626	0.8057622313499451	0.0	2056.0	2048.0	2572.0	70.0	70.0	70.0	70.0	1516750423156.0
2016-03-31 12:29:29.455	0.0	-0.25	0.0	0.0	7.0	83.0	-66.0	-12.0	-92.0	98483.0	531.0	0.0	0.0	0.0	0.0	-11.0	-41.0	-104405.0	0.0	0.8776528239250183	0.6751753091812134	0.0	2052.0	2064.0	2572.0	70.0	70.0	70.0	70.0	1516753428192.0
2016-03-31 12:29:29.460	0.0	-0.25	0.0	0.0	7.0	83.0	-66.0	-12.0	-92.0	98483.0	531.0	0.0	0.0	0.0	0.0	-6.0	-39.0	-104401.0	0.0	1.0668420791625977	0.4776805341243744	0.0	2040.0	2052.0	2568.0	70.0	70.0	70.0	70.0	1516755433166.0
2016-03-31 12:29:29.465	0.0	-0.25	0.0	0.0	7.0	83.0	-84.0	16.0	-92.0	98495.0	531.0	0.0	0.0	0.0	0.0	-5.0	-36.0	-104395.0	0.0	1.0392309427261353	-0.06830693036317825	0.0	2048.0	2052.0	2564.0	70.0	70.0	70.0	70.0	1516758438323.0
2016-03-31 12:29:29.470	0.0	-0.25	0.0	0.0	7.0	83.0	-84.0	16.0	-92.0	98492.0	531.0	0.0	0.0	0.0	0.0	-4.0	-32.0	-104397.0	0.0	0.8449620008468628	-0.389534205198288	0.0	2056.0	2044.0	2564.0	70.0	70.0	70.0	70.0	1516760443176.0
2016-03-31 12:29:29.475	0.0	-0.25	0.0	0.0	7.0	83.0	-66.0	-10.0	-100.0	98489.0	531.0	0.0	0.0	0.0	0.0	-6.0	-33.0	-104399.0	0.0	0.8761869072914124	-0.4599384665489197	0.0	2056.0	2040.0	2564.0	70.0	70.0	70.0	70.0	1516762448211.0
2016-03-31 12:29:29.480	0.0	-0.25	0.0	0.0	7.0	83.0	-66.0	-10.0	-100.0	98492.0	531.0	0.0	0.0	0.0	0.0	-2.0	-34.0	-104404.0	0.0	1.0484580993652344	-0.18021634221076965	0.0	2056.0	2044.0	2568.0	70.0	70.0	70.0	70.0	1516765453521.0
2016-03-31 12:29:29.485	0.0	-0.25	0.0	0.0	7.0	83.0	-91.0	9.0	-75.0	98498.0	531.0	0.0	0.0	0.0	0.0	-1.0	-38.0	-104402.0	0.0	1.3144619464874268	0.20720213651657104	0.0	2044.0	2052.0	2568.0	70.0	70.0	70.0	70.0	1516767458221.0
2016-03-31 12:29:29.490	0.0	-0.25	0.0	0.0	7.0	83.0	-91.0	9.0	-75.0	98495.0	531.0	0.0	0.0	0.0	0.0	0.0	-38.0	-104397.0	0.0	1.519320011138916	0.2499261200428009	0.0	2052.0	2052.0	2568.0	70.0	70.0	70.0	70.0	1516770463500.0
2016-03-31 12:29:29.495	0.0	-0.25	0.0	0.0	7.0	83.0	-57.0	1.0	-103.0	98480.0	531.0	0.0	0.0	0.0	0.0	0.5	-37.0	-104388.5	0.0	1.2828059196472168	-0.17247483879327774	0.0	2050.0	2054.0	2566.0	70.0	70.0	70.0	70.0	1516773970764.0
2016-03-31 12:29:29.500	0.0	-0.25	0.0	0.0	7.0	83.0	-94.0	0.0	-78.0	98486.0	531.0	0.0	0.0	0.0	0.0	2.0	-35.0	-104390.0	0.0	1.0505200624465942	-0.6802924871444702	0.0	2052.0	2044.0	2568.0	70.0	70.0	70.0	70.0	1516777478363.0
2016-03-31 12:29:29.505	0.0	-0.25	0.0	0.0	7.0	83.0	-94.0	0.0	-78.0	98486.0	531.0	0.0	0.0	0.0	0.0	2.0	-35.0	-104390.0	0.0	1.0505200624465942	-0.6802924871444702	0.0	2052.0	2044.0	2568.0	70.0	70.0	70.0	70.0	1516777478363.0
2016-03-31 12:29:29.510	0.0	-0.25	0.0	0.0	7.0	83.0	-94.0	0.0	-78.0	98486.0	531.0	0.0	0.0	0.0	0.0	3.0	-35.0	-104396.0	0.0	1.171123743057251	-0.7478183507919312	0.0	2052.0	2048.0	2568.0	70.0	70.0	70.0	70.0	1516780483489.0
2016-03-31 12:29:29.515	0.0	-0.25	0.0	0.0	7.0	83.0	-83.0	17.0	-91.0	98489.0	531.0	0.0	0.0	0.0	0.0	5.0	-34.0	-104403.0	0.0	1.443572163581848	-0.6810072660446167	0.0	2048.0	2048.0	2568.0	70.0	70.0	70.0	70.0	1516782488433.0
2016-03-31 12:29:29.520	0.0	-0.25	0.0	0.0	7.0	83.0	-83.0	17.0	-91.0	98495.0	531.0	0.0	0.0	0.0	0.0	4.0	-36.0	-104401.0	0.0	1.5222412347793581	-0.6361812353134155	0.0	2044.0	2052.0	2568.0	70.0	70.0	70.0	70.0	1516784493316.0
2016-03-31 12:29:29.525	0.0	-0.25	0.0	0.0	7.0	83.0	-61.0	-3.0	-101.0	98495.0	531.0	0.0	0.0	0.0	0.0	4.0	-34.0	-104398.0	0.0	1.6040571928024292	-0.7019886374473572	0.0	2052.0	2052.0	2564.0	70.0	70.0	70.0	70.0	1516787498321.0
2016-03-31 12:29:29.530	0.0	-0.25	0.0	0.0	7.0	83.0	-61.0	-3.0	-101.0	98492.0	531.0	0.0	0.0	0.0	0.0	3.0	-36.0	-104391.0	0.0	1.256947040557861	-0.8881517052650452	0.0	2048.0	2052.0	2568.0	70.0	70.0	70.0	70.0	1516789503326.0
2016-03-31 12:29:29.535	0.0	-0.25	0.0	0.0	7.0	83.0	-93.0	7.0	-85.0	98495.0	531.0	0.0	0.0	0.0	0.0	3.0	-35.0	-104389.0	0.0	1.2681695222854614	-1.0054645538330078	0.0	2056.0	2044.0	2568.0	70.0	70.0	70.0	70.0	1516792508300.0
2016-03-31 12:29:29.540	0.0	-0.25	0.0	0.0	7.0	83.0	-93.0	7.0	-85.0	98492.0	531.0	0.0	0.0	0.0	0.0	4.0	-37.0	-104393.0	0.0	1.2234258651733398	-0.9886409640312196	0.0	2048.0	2044.0	2568.0	70.0	70.0	70.0	70.0	1516794513366.0
2016-03-31 12:29:29.545	0.0	-0.25	0.0	0.0	7.0	83.0	-86.0	14.0	-92.0	98486.0	531.0	0.0	0.0	0.0	0.0	2.0	-38.0	-104398.0	0.0	1.3451696634292605	-0.8017181158065796	0.0	2048.0	2048.0	2564.0	70.0	70.0	70.0	70.0	1516797518798.0
2016-03-31 12:29:29.550	0.0	-0.25	0.0	0.0	7.0	83.0	-86.0	14.0	-92.0	98489.0	531.0	0.0	0.0	0.0	0.0	3.0	-38.0	-104405.0	0.0	1.2791577577590942	-0.552631139755249	0.0	2044.0	2048.0	2568.0	70.0	70.0	70.0	70.0	1516799523437.0
2016-03-31 12:29:29.555	0.0	-0.25	0.0	0.0	7.0	83.0	-61.0	7.0	-97.0	98489.0	531.0	0.0	0.0	0.0	0.0	0.0	-39.0	-104407.0	0.0	1.059147596359253	-0.4999730885028839	0.0	2048.0	2052.0	2568.0	70.0	70.0	70.0	70.0	1516802528442.0
2016-03-31 12:29:29.560	0.0	-0.25	0.0	0.0	7.0	83.0	-61.0	7.0	-97.0	98489.0	531.0	0.0	0.0	0.0	0.0	0.0	-36.0	-104406.0	0.0	0.8622918725013733	-0.5582470297813416	0.0	2048.0	2052.0	2568.0	70.0	70.0	70.0	70.0	1516804533447.0
2016-03-31 12:29:29.565	0.0	-0.25	0.0	0.0	7.0	83.0	-70.0	2.0	-90.0	98495.0	531.0	0.0	0.0	0.0	0.0	-2.0	-37.0	-104400.0	0.0	0.6449310779571533	-0.7191085815429688	0.0	2048.0	2044.0	2568.0	70.0	70.0	70.0	70.0	1516806538452.0
2016-03-31 12:29:29.570	0.0	-0.25	0.0	0.0	7.0	83.0	-70.0	2.0	-90.0	98492.0	531.0	0.0	0.0	0.0	0.0	-2.0	-37.0	-104394.0	0.0	0.6833475828170776	-0.7769241333007812	0.0	2052.0	2048.0	2568.0	70.0	70.0	70.0	70.0	1516809543518.0
2016-03-31 12:29:29.575	0.0	-0.25	0.0	0.0	7.0	83.0	-90.0	2.0	-84.0	98489.0	531.0	0.0	0.0	0.0	0.0	0.0	-39.0	-104391.0	0.0	0.7086326479911804	-0.676817774772644	0.0	2052.0	2048.0	2568.0	70.0	70.0	70.0	70.0	1516811548706.0
2016-03-31 12:29:29.580	0.0	-0.25	0.0	0.0	7.0	83.0	-90.0	2.0	-84.0	98489.0	531.0	0.0	0.0	0.0	0.0	-2.0	-39.0	-104393.0	0.0	0.7867820262908936	-0.6007876992225647	0.0	2044.0	2052.0	2568.0	70.0	70.0	70.0	70.0	1516814553558.0
2016-03-31 12:29:29.585	0.0	-0.25	0.0	0.0	7.0	83.0	-94.0	10.0	-90.0	98489.0	531.0	0.0	0.0	0.0	0.0	0.0	-36.0	-104401.0	0.0	0.8759007453918457	-0.6263414621353149	0.0	2052.0	2052.0	2568.0	70.0	70.0	70.0	70.0	1516816558746.0
2016-03-31 12:29:29.590	0.0	-0.25	0.0	0.0	7.0	83.0	-94.0	10.0	-90.0	98489.0	531.0	0.0	0.0	0.0	0.0	-2.0	-36.0	-104406.0	0.0	0.8696080446243286	-0.807092010974884	0.0	2048.0	2048.0	2568.0	70.0	70.0	70.0	70.0	1516819563568.0
2016-03-31 12:29:29.595	0.0	-0.25	0.0	0.0	7.0	83.0	-89.0	11.0	-87.0	98486.0	531.0	0.0	0.0	0.0	0.0	0.0	-34.0	-104411.0	0.0	0.8943451642990112	-0.9201420545578004	0.0	2056.0	2048.0	2564.0	70.0	70.0	70.0	70.0	1516821568542.0
2016-03-31 12:29:29.600	0.0	-0.25	0.0	0.0	7.0	83.0	-89.0	11.0	-87.0	98495.0	531.0	0.0	0.0	0.0	0.0	0.0	-36.0	-104409.0	0.0	0.8688722848892212	-0.9049463272094728	0.0	2048.0	2048.0	2568.0	70.0	70.0	70.0	70.0	1516824573486.0
2016-03-31 12:29:29.605	0.0	-0.25	0.0	0.0	7.0	83.0	-71.0	9.0	-97.0	98498.0	531.0	0.0	0.0	0.0	0.0	0.0	-37.0	-104404.0	0.0	1.0037857294082642	-0.8398701548576355	0.0	2052.0	2048.0	2568.0	70.0	70.0	70.0	70.0	1516826578613.0
2016-03-31 12:29:29.610	0.0	-0.25	0.0	0.0	7.0	83.0	-71.0	9.0	-97.0	98489.0	531.0	0.0	0.0	0.0	0.0	3.0	-37.0	-104400.0	0.0	1.0692400932312012	-0.6825931668281555	0.0	2052.0	2048.0	2568.0	70.0	70.0	70.0	70.0	1516829583801.0
2016-03-31 12:29:29.615	0.0	-0.25	0.0	0.0	7.0	83.0	-65.0	3.0	-99.0	98489.0	531.0	0.0	0.0	0.0	0.0	1.0	-37.0	-104398.0	0.0	1.0674296617507937	-0.66930091381073	0.0	2048.0	2052.0	2564.0	70.0	70.0	70.0	70.0	1516831588928.0
2016-03-31 12:29:29.620	0.0	-0.25	0.0	0.0	7.0	83.0	-65.0	3.0	-99.0	98489.0	531.0	0.0	0.0	0.0	0.0	3.0	-35.0	-104402.0	0.0	1.142781138420105	-0.6841446757316589	0.0	2056.0	2048.0	2564.0	70.0	70.0	70.0	70.0	1516833593597.0
2016-03-31 12:29:29.625	0.0	-0.25	0.0	0.0	7.0	83.0	-65.0	7.0	-103.0	98492.0	531.0	0.0	0.0	0.0	0.0	3.0	-35.0	-104407.0	0.0	1.1672333478927612	-0.7753527760505676	0.0	2048.0	2044.0	2568.0	70.0	70.0	70.0	70.0	1516836598815.0
2016-03-31 12:29:29.630	0.0	-0.25	0.0	0.0	7.0	83.0	-65.0	7.0	-103.0	98492.0	531.0	0.0	0.0	0.0	0.0	4.0	-36.0	-104409.0	0.0	1.4157885313034058	-0.7712298631668091	0.0	2052.0	2044.0	2568.0	70.0	70.0	70.0	70.0	1516838603607.0
2016-03-31 12:29:29.635	0.0	-0.25	0.0	0.0	7.0	83.0	-64.0	8.0	-106.0	98495.0	531.0	0.0	0.0	0.0	0.0	7.0	-38.0	-104409.0	0.0	1.490681767463684	-0.6517838835716248	0.0	2052.0	2048.0	2568.0	70.0	70.0	70.0	70.0	1516841608581.0
2016-03-31 12:29:29.640	0.0	-0.25	0.0	0.0	7.0	83.0	-64.0	8.0	-106.0	98495.0	531.0	0.0	0.0	0.0	0.0	6.0	-39.0	-104404.0	0.0	1.6426761150360107	-0.5323030352592468	0.0	2048.0	2048.0	2568.0	70.0	70.0	70.0	70.0	1516843613769.0
2016-03-31 12:29:29.645	0.0	-0.25	0.0	0.0	7.0	83.0	-66.0	6.0	-108.0	98480.0	531.0	0.0	0.0	0.0	0.0	8.0	-39.0	-104399.0	0.0	1.752939224243164	-0.47025066614151	0.0	2052.0	2048.0	2564.0	70.0	70.0	70.0	70.0	1516846618835.0
2016-03-31 12:29:29.650	0.0	-0.25	0.0	0.0	7.0	83.0	-66.0	6.0	-108.0	98486.0	531.0	0.0	0.0	0.0	0.0	6.0	-39.0	-104398.0	0.0	1.586966633796692	-0.5092556476593018	0.0	2048.0	2052.0	2568.0	70.0	70.0	70.0	70.0	1516848623718.0
2016-03-31 12:29:29.655	0.0	-0.25	0.0	0.0	7.0	83.0	-67.0	3.0	-107.0	98498.0	531.0	0.0	0.0	0.0	0.0	7.0	-38.0	-104398.0	0.0	1.590684175491333	-0.5785875916481018	0.0	2052.0	2048.0	2568.0	70.0	70.0	70.0	70.0	1516851628753.0
2016-03-31 12:29:29.660	0.0	-0.25	0.0	0.0	7.0	83.0	-67.0	3.0	-107.0	98492.0	531.0	0.0	0.0	0.0	0.0	8.0	-39.0	-104401.0	0.0	1.421201229095459	-0.7017316222190857	0.0	2048.0	2052.0	2568.0	70.0	70.0	70.0	70.0	1516853633728.0
2016-03-31 12:29:29.665	0.0	-0.25	0.0	0.0	7.0	83.0	-67.0	11.0	-105.0	98486.0	531.0	0.0	0.0	0.0	0.0	6.0	-38.0	-104405.0	0.0	1.3954167366027832	-0.7588545083999634	0.0	2048.0	2052.0	2564.0	70.0	70.0	70.0	70.0	1516855638916.0
2016-03-31 12:29:29.670	0.0	-0.25	0.0	0.0	7.0	83.0	-67.0	11.0	-105.0	98492.0	531.0	0.0	0.0	0.0	0.0	8.0	-36.0	-104406.0	0.0	1.2592414617538452	-0.8683406114578247	0.0	2048.0	2052.0	2568.0	70.0	70.0	70.0	70.0	1516858643829.0
2016-03-31 12:29:29.675	0.0	-0.25	0.0	0.0	7.0	83.0	-79.0	11.0	-93.0	98498.0	531.0	0.0	0.0	0.0	0.0	6.0	-36.0	-104407.0	0.0	1.1020877361297607	-0.9526019096374512	0.0	2048.0	2048.0	2568.0	70.0	70.0	70.0	70.0	1516860649047.0
2016-03-31 12:29:29.680	0.0	-0.25	0.0	0.0	7.0	83.0	-79.0	11.0	-93.0	98492.0	531.0	0.0	0.0	0.0	0.0	7.0	-34.0	-104405.0	0.0	1.0084772109985352	-1.0375435352325442	0.0	2048.0	2052.0	2568.0	70.0	70.0	70.0	70.0	1516863653778.0
2016-03-31 12:29:29.685	0.0	-0.25	0.0	0.0	7.0	83.0	-80.0	10.0	-82.0	98498.0	531.0	0.0	0.0	0.0	0.0	7.0	-37.0	-104405.0	0.0	0.8272106051445007	-1.0648746490478516	0.0	2048.0	2048.0	2568.0	70.0	70.0	70.0	70.0	1516865658935.0
2016-03-31 12:29:29.690	0.0	-0.25	0.0	0.0	7.0	83.0	-80.0	10.0	-82.0	98498.0	531.0	0.0	0.0	0.0	0.0	6.0	-36.0	-104405.0	0.0	0.7806851267814636	-1.0597455501556396	0.0	2048.0	2052.0	2568.0	72.0	72.0	72.0	72.0	1516868663848.0
2016-03-31 12:29:29.695	0.0	-0.25	0.0	0.0	7.0	83.0	-86.0	4.0	-72.0	98492.0	531.0	0.0	0.0	0.0	0.0	6.0	-37.0	-104405.0	0.0	0.6713886260986328	-1.0821517705917358	0.0	2048.0	2052.0	2568.0	72.0	72.0	72.0	72.0	1516870668823.0
2016-03-31 12:29:29.700	0.0	-0.25	0.0	0.0	7.0	83.0	-86.0	4.0	-72.0	98492.0	531.0	0.0	0.0	0.0	0.0	5.0	-36.0	-104407.0	0.0	0.640481173992157	-1.1029702425003052	0.0	2052.0	2048.0	2568.0	72.0	72.0	72.0	72.0	1516873673858.0
2016-03-31 12:29:29.705	0.0	-0.25	0.0	0.0	7.0	83.0	-81.0	3.0	-81.0	98486.0	531.0	0.0	0.0	0.0	0.0	5.0	-35.0	-104404.0	0.0	0.6137166619300842	-1.1109498739242554	0.0	2048.0	2044.0	2568.0	72.0	72.0	72.0	72.0	1516875679290.0
2016-03-31 12:29:29.710	0.0	-0.25	0.0	0.0	7.0	83.0	-81.0	3.0	-81.0	98489.0	531.0	0.0	0.0	0.0	0.0	6.0	-36.0	-104403.0	0.0	0.6589258909225464	-1.1181167364120483	0.0	2048.0	2048.0	2568.0	72.0	72.0	72.0	72.0	1516877684020.0
2016-03-31 12:29:29.715	0.0	-0.25	0.0	0.0	7.0	83.0	-76.0	-2.0	-104.0	98495.0	531.0	0.0	0.0	0.0	0.0	5.0	-37.0	-104398.0	0.0	0.6568176746368408	-1.1075774431228638	0.0	2044.0	2052.0	2568.0	72.0	72.0	72.0	72.0	1516880688873.0
2016-03-31 12:29:29.720	0.0	-0.25	0.0	0.0	7.0	83.0	-76.0	-2.0	-104.0	98492.0	531.0	0.0	0.0	0.0	0.0	5.0	-38.0	-104397.0	0.0	0.6706230640411377	-1.0371634960174558	0.0	2056.0	2044.0	2564.0	72.0	72.0	72.0	72.0	1516882693908.0
2016-03-31 12:29:29.725	0.0	-0.25	0.0	0.0	7.0	83.0	-70.0	6.0	-106.0	98489.0	531.0	0.0	0.0	0.0	0.0	5.0	-40.0	-104396.0	0.0	0.5427891016006471	-0.977479100227356	0.0	2044.0	2048.0	2568.0	72.0	72.0	72.0	72.0	1516885698883.0
2016-03-31 12:29:29.730	0.0	-0.25	0.0	0.0	7.0	83.0	-70.0	6.0	-106.0	98498.0	531.0	0.0	0.0	0.0	0.0	5.0	-37.0	-104397.0	0.0	0.5655084252357483	-0.9109909534454346	0.0	2052.0	2052.0	2568.0	72.0	72.0	72.0	72.0	1516887703857.0
2016-03-31 12:29:29.735	0.0	-0.25	0.0	0.0	7.0	83.0	-76.0	2.0	-82.0	98495.0	531.0	0.0	0.0	0.0	0.0	8.0	-38.0	-104399.0	0.0	0.560602068901062	-0.8251146078109741	0.0	2052.0	2040.0	2568.0	72.0	72.0	72.0	72.0	1516890708953.0
2016-03-31 12:29:29.740	0.0	-0.25	0.0	0.0	7.0	83.0	-76.0	2.0	-82.0	98486.0	531.0	0.0	0.0	0.0	0.0	6.0	-38.0	-104399.0	0.0	0.6358550190925598	-0.8042954206466675	0.0	2044.0	2048.0	2568.0	72.0	72.0	72.0	72.0	1516892714111.0
2016-03-31 12:29:29.745	0.0	-0.25	0.0	0.0	7.0	83.0	-83.0	-3.0	-83.0	98486.0	531.0	0.0	0.0	0.0	0.0	6.0	-40.0	-104402.0	0.0	0.6904388666152954	-0.6986953020095825	0.0	2048.0	2052.0	2564.0	72.0	72.0	72.0	72.0	1516895719177.0
2016-03-31 12:29:29.750	0.0	-0.25	0.0	0.0	7.0	83.0	-83.0	-3.0	-83.0	98486.0	531.0	0.0	0.0	0.0	0.0	3.0	-43.0	-104403.0	0.0	0.5663238763809204	-0.6935124397277832	0.0	2048.0	2044.0	2564.0	72.0	72.0	72.0	72.0	1516897724060.0
2016-03-31 12:29:29.755	0.0	-0.25	0.0	0.0	7.0	83.0	-73.0	5.0	-97.0	98495.0	531.0	0.0	0.0	0.0	0.0	2.0	-43.0	-104409.0	0.0	0.5469983816146851	-0.5875260829925537	0.0	2052.0	2044.0	2564.0	72.0	72.0	72.0	72.0	1516900729125.0
2016-03-31 12:29:29.760	0.0	-0.25	0.0	0.0	7.0	83.0	-73.0	5.0	-97.0	98498.0	531.0	0.0	0.0	0.0	0.0	5.0	-43.0	-104409.0	0.0	0.4128255844116211	-0.572251558303833	0.0	2048.0	2056.0	2568.0	72.0	72.0	72.0	72.0	1516902733978.0
2016-03-31 12:29:29.765	0.0	-0.25	0.0	0.0	7.0	83.0	-77.0	-1.0	-79.0	98489.0	531.0	0.0	0.0	0.0	0.0	5.0	-39.0	-104411.0	0.0	0.5345475673675537	-0.6011801362037659	0.0	2052.0	2052.0	2568.0	72.0	72.0	72.0	72.0	1516904739135.0
2016-03-31 12:29:29.770	0.0	-0.25	0.0	0.0	7.0	83.0	-77.0	-1.0	-79.0	98489.0	531.0	0.0	0.0	0.0	0.0	9.0	-36.0	-104407.0	0.0	0.5647751688957214	-0.5958827137947083	0.0	2048.0	2040.0	2568.0	72.0	72.0	72.0	72.0	1516907744262.0
2016-03-31 12:29:29.775	0.0	-0.25	0.0	0.0	7.0	83.0	-80.0	6.0	-96.0	98492.0	531.0	0.0	0.0	0.0	0.0	8.0	-37.0	-104402.0	0.0	0.6057280898094177	-0.7335906624794006	0.0	2044.0	2052.0	2564.0	72.0	72.0	72.0	72.0	1516909749176.0
2016-03-31 12:29:29.780	0.0	-0.25	0.0	0.0	7.0	83.0	-80.0	6.0	-96.0	98492.0	531.0	0.0	0.0	0.0	0.0	7.0	-36.0	-104399.0	0.0	0.6295296549797058	-0.701726496219635	0.0	2052.0	2048.0	2568.0	72.0	72.0	72.0	72.0	1516912754150.0
2016-03-31 12:29:29.785	0.0	-0.25	0.0	0.0	7.0	83.0	-76.0	4.0	-102.0	98495.0	531.0	0.0	0.0	0.0	0.0	5.0	-42.0	-104391.0	0.0	0.5328280925750732	-0.7068495750427246	0.0	2052.0	2044.0	2568.0	72.0	72.0	72.0	72.0	1516914759521.0
2016-03-31 12:29:29.790	0.0	-0.25	0.0	0.0	7.0	83.0	-76.0	4.0	-102.0	98495.0	531.0	0.0	0.0	0.0	0.0	2.0	-42.0	-104389.0	0.0	0.6027181148529053	-0.5513331890106201	0.0	2052.0	2048.0	2568.0	72.0	72.0	72.0	72.0	1516917764129.0
2016-03-31 12:29:29.795	0.0	-0.25	0.0	0.0	7.0	83.0	-82.0	10.0	-86.0	98492.0	531.0	0.0	0.0	0.0	0.0	5.0	-44.0	-104386.0	0.0	0.6711598038673401	-0.4745822846889496	0.0	2052.0	2052.0	2568.0	72.0	72.0	72.0	72.0	1516919769073.0
2016-03-31 12:29:29.800	0.0	-0.25	0.0	0.0	7.0	83.0	-82.0	10.0	-86.0	98492.0	531.0	0.0	0.0	0.0	0.0	4.0	-44.0	-104385.0	0.0	0.8143575191497803	-0.4249337315559387	0.0	2048.0	2040.0	2568.0	72.0	72.0	72.0	72.0	1516922774169.0
2016-03-31 12:29:29.805	0.0	-0.25	0.0	0.0	7.0	83.0	-74.0	8.0	-96.0	98495.0	531.0	0.0	0.0	0.0	0.0	6.0	-42.0	-104388.0	0.0	0.984375536441803	-0.3992657065391541	0.0	2052.0	2048.0	2568.0	72.0	72.0	72.0	72.0	1516924779388.0
2016-03-31 12:29:29.810	0.0	-0.25	0.0	0.0	7.0	83.0	-74.0	8.0	-96.0	98492.0	531.0	0.0	0.0	0.0	0.0	7.0	-43.0	-104390.0	0.0	0.99607914686203	-0.3538254797458649	0.0	2048.0	2048.0	2564.0	72.0	72.0	72.0	72.0	1516926784179.0
2016-03-31 12:29:29.815	0.0	-0.25	0.0	0.0	7.0	83.0	-80.0	6.0	-88.0	98492.0	531.0	0.0	0.0	0.0	0.0	6.0	-42.0	-104396.0	0.0	1.0864487886428833	-0.29342445731163025	0.0	2052.0	2048.0	2568.0	72.0	72.0	72.0	72.0	1516929789215.0
2016-03-31 12:29:29.820	0.0	-0.25	0.0	0.0	7.0	83.0	-80.0	6.0	-88.0	98495.0	531.0	0.0	0.0	0.0	0.0	9.0	-45.0	-104402.0	0.0	1.0087823867797852	-0.2327744662761688	0.0	2052.0	2044.0	2572.0	72.0	72.0	72.0	72.0	1516931794189.0
2016-03-31 12:29:29.825	0.0	-0.25	0.0	0.0	7.0	83.0	-83.0	-3.0	-91.0	98498.0	531.0	0.0	0.0	0.0	0.0	6.0	-44.0	-104407.0	0.0	1.0458167791366575	-0.23169972002506256	0.0	2048.0	2052.0	2568.0	72.0	72.0	72.0	72.0	1516934799377.0
2016-03-31 12:29:29.830	0.0	-0.25	0.0	0.0	7.0	83.0	-83.0	-3.0	-91.0	98498.0	531.0	0.0	0.0	0.0	0.0	7.0	-46.0	-104414.0	0.0	1.0865859985351562	-0.2085612565279007	0.0	2052.0	2044.0	2568.0	72.0	72.0	72.0	72.0	1516936804260.0
2016-03-31 12:29:29.835	0.0	-0.25	0.0	0.0	7.0	83.0	-87.0	11.0	-91.0	98489.0	531.0	0.0	0.0	0.0	0.0	1.0	-45.0	-104409.0	0.0	0.9380662441253662	-0.1624988466501236	0.0	2040.0	2044.0	2568.0	72.0	72.0	72.0	72.0	1516939809356.0
2016-03-31 12:29:29.840	0.0	-0.25	0.0	0.0	7.0	83.0	-87.0	11.0	-91.0	98486.0	531.0	0.0	0.0	0.0	0.0	0.0	-45.0	-104401.0	0.0	0.8737559914588928	-0.08322100341320038	0.0	2052.0	2048.0	2568.0	72.0	72.0	72.0	72.0	1516941814453.0
2016-03-31 12:29:29.845	0.0	-0.25	0.0	0.0	7.0	83.0	-72.0	8.0	-98.0	98492.0	531.0	0.0	0.0	0.0	0.0	0.0	-50.0	-104389.0	0.0	0.5910900831222534	0.10144246369600296	0.0	2048.0	2040.0	2568.0	72.0	72.0	72.0	72.0	1516944819488.0
2016-03-31 12:29:29.850	0.0	-0.25	0.0	0.0	7.0	83.0	-72.0	8.0	-98.0	98492.0	531.0	0.0	0.0	0.0	0.0	-1.0	-53.0	-104380.0	0.0	0.5745667815208435	0.20886263251304624	0.0	2052.0	2044.0	2564.0	72.0	72.0	72.0	72.0	1516946824310.0
2016-03-31 12:29:29.855	0.0	-0.25	0.0	0.0	7.0	83.0	-77.0	11.0	-85.0	98492.0	531.0	0.0	0.0	0.0	0.0	4.0	-59.0	-104391.0	0.0	0.6516910791397095	0.4043547511100769	0.0	2060.0	2048.0	2568.0	72.0	72.0	72.0	72.0	1516948829284.0
2016-03-31 12:29:29.860	0.0	-0.25	0.0	0.0	7.0	83.0	-77.0	11.0	-85.0	98492.0	531.0	0.0	0.0	0.0	0.0	4.0	-57.0	-104406.0	0.0	0.9269629716873168	0.3905254602432251	0.0	2060.0	2052.0	2568.0	72.0	72.0	72.0	72.0	1516951834289.0
2016-03-31 12:29:29.865	0.0	-0.25	0.0	0.0	7.0	83.0	-79.0	-9.0	-97.0	98495.0	531.0	0.0	0.0	0.0	0.0	8.0	-52.0	-104425.0	0.0	1.36589777469635	0.34589165449142456	0.0	2052.0	2048.0	2572.0	72.0	72.0	72.0	72.0	1516953839538.0
2016-03-31 12:29:29.870	0.0	-0.25	0.0	0.0	7.0	83.0	-79.0	-9.0	-97.0	98498.0	531.0	0.0	0.0	0.0	0.0	6.0	-49.0	-104427.0	0.0	1.5067801475524902	0.16205443441867828	0.0	2044.0	2048.0	2568.0	72.0	72.0	72.0	72.0	1516956844604.0
2016-03-31 12:29:29.875	0.0	-0.25	0.0	0.0	7.0	83.0	-83.0	-11.0	-89.0	98495.0	531.0	0.0	0.0	0.0	0.0	2.0	-49.0	-104415.0	0.0	1.4813960790634155	0.07139229774475098	0.0	2040.0	2040.0	2568.0	72.0	72.0	72.0	72.0	1516958849426.0
2016-03-31 12:29:29.880	0.0	-0.25	0.0	0.0	7.0	83.0	-83.0	-11.0	-89.0	98492.0	531.0	0.0	0.0	0.0	0.0	1.0	-61.0	-104402.0	0.0	1.0496039390563965	0.21119946241378784	0.0	2048.0	2036.0	2560.0	72.0	72.0	72.0	72.0	1516961854492.0
2016-03-31 12:29:29.885	0.0	-0.25	0.0	0.0	7.0	83.0	-77.0	-1.0	-91.0	98504.0	531.0	0.0	0.0	0.0	0.0	0.0	-65.0	-104392.0	0.0	0.7191470265388489	0.3324571549892425	0.0	2060.0	2060.0	2560.0	72.0	72.0	72.0	72.0	1516963859405.0
2016-03-31 12:29:29.890	0.0	-0.25	0.0	0.0	7.0	83.0	-77.0	-1.0	-91.0	98507.0	531.0	0.0	0.0	0.0	0.0	7.0	-60.0	-104401.0	0.0	0.8170964121818542	0.4246464669704437	0.0	2072.0	2060.0	2572.0	72.0	72.0	72.0	72.0	1516966864379.0
2016-03-31 12:29:29.895	0.0	-0.25	0.0	0.0	7.0	83.0	-74.0	2.0	-92.0	98501.0	531.0	0.0	0.0	0.0	0.0	14.0	-49.0	-104407.0	0.0	1.2257936000823977	0.1412796974182129	0.0	2048.0	2044.0	2572.0	72.0	72.0	72.0	72.0	1516968869506.0
2016-03-31 12:29:29.900	0.0	-0.25	0.0	0.0	7.0	83.0	-74.0	2.0	-92.0	98504.0	531.0	0.0	0.0	0.0	0.0	15.0	-43.0	-104415.0	0.0	1.733414888381958	-0.1805008202791214	0.0	2036.0	2044.0	2572.0	72.0	72.0	72.0	72.0	1516971874633.0
2016-03-31 12:29:29.905	0.0	-0.25	0.0	0.0	7.0	83.0	-72.0	10.0	-90.0	98498.0	531.0	0.0	0.0	0.0	0.0	11.0	-54.0	-104419.0	0.0	1.637656569480896	-0.2085678726434708	0.0	2040.0	2032.0	2560.0	72.0	72.0	72.0	72.0	1516973879699.0
2016-03-31 12:29:29.910	0.0	-0.25	0.0	0.0	7.0	83.0	-72.0	10.0	-90.0	98501.0	531.0	0.0	0.0	0.0	0.0	2.0	-64.0	-104420.0	0.0	1.1016900539398191	0.004924347158521414	0.0	2052.0	2048.0	2556.0	72.0	72.0	72.0	72.0	1516975884582.0
2016-03-31 12:29:29.915	0.0	-0.25	0.0	0.0	7.0	83.0	-88.0	8.0	-94.0	98513.0	531.0	0.0	0.0	0.0	0.0	5.0	-63.0	-104428.0	0.0	0.6898362040519714	0.2851911783218384	0.0	2072.0	2076.0	2560.0	72.0	72.0	72.0	72.0	1516978889495.0
2016-03-31 12:29:29.920	0.0	-0.25	0.0	0.0	7.0	83.0	-88.0	8.0	-94.0	98504.0	531.0	0.0	0.0	0.0	0.0	19.0	-48.0	-104426.0	0.0	0.8522008657455444	0.106909342110157	0.0	2072.0	2052.0	2572.0	72.0	72.0	72.0	72.0	1516980894409.0
2016-03-31 12:29:29.925	0.0	-0.25	0.0	0.0	7.0	83.0	-67.0	1.0	-83.0	98486.0	531.0	0.0	0.0	0.0	0.0	34.0	-38.0	-104415.0	0.0	1.6218322515487669	-0.33776772022247314	0.0	2040.0	2028.0	2576.0	72.0	72.0	72.0	72.0	1516983899444.0
2016-03-31 12:29:29.930	0.0	-0.25	0.0	0.0	7.0	83.0	-67.0	1.0	-83.0	98489.0	531.0	0.0	0.0	0.0	0.0	39.0	-46.0	-104406.0	0.0	2.091906785964966	-0.4389715790748596	0.0	2032.0	2028.0	2564.0	72.0	72.0	72.0	72.0	1516985904541.0
2016-03-31 12:29:29.935	0.0	-0.25	0.0	0.0	7.0	83.0	-85.0	15.0	-101.0	98501.0	531.0	0.0	0.0	0.0	0.0	27.0	-64.0	-104406.0	0.0	1.7812985181808472	-0.018700947985053062	0.0	2040.0	2040.0	2552.0	72.0	72.0	72.0	72.0	1516988909790.0
2016-03-31 12:29:29.940	0.0	-0.25	0.0	0.0	7.0	83.0	-85.0	15.0	-101.0	98501.0	531.0	0.0	0.0	0.0	0.0	12.0	-68.0	-104432.0	0.0	0.9605262279510498	0.6742096543312073	0.0	2060.0	2068.0	2556.0	72.0	72.0	72.0	72.0	1516990914581.0
2016-03-31 12:29:29.945	0.0	-0.25	0.0	0.0	7.0	83.0	-71.0	5.0	-89.0	98501.0	531.0	0.0	0.0	0.0	0.0	13.0	-54.0	-104460.0	0.0	0.3385663628578186	0.8837451934814453	0.0	2064.0	2060.0	2572.0	72.0	72.0	72.0	72.0	1516993919799.0
2016-03-31 12:29:29.950	0.0	-0.25	0.0	0.0	7.0	83.0	-71.0	5.0	-89.0	98501.0	531.0	0.0	0.0	0.0	0.0	26.0	-40.0	-104464.0	0.0	0.4928368031978607	0.3115423321723938	0.0	2048.0	2044.0	2580.0	72.0	72.0	72.0	72.0	1516995924713.0
2016-03-31 12:29:29.955	0.0	-0.25	0.0	0.0	7.0	83.0	-80.0	18.0	-88.0	98504.0	531.0	0.0	0.0	0.0	0.0	41.0	-43.0	-104461.0	0.0	1.0356618165969849	-0.1073467656970024	0.0	2044.0	2016.0	2572.0	72.0	72.0	72.0	72.0	1516997929565.0
2016-03-31 12:29:29.960	0.0	-0.25	0.0	0.0	7.0	83.0	-80.0	18.0	-88.0	98507.0	531.0	0.0	0.0	0.0	0.0	42.0	-69.0	-104441.0	0.0	1.1658904552459717	-0.1454402655363083	0.0	2036.0	2044.0	2556.0	72.0	72.0	72.0	72.0	1517000934967.0
2016-03-31 12:29:29.965	0.0	-0.25	0.0	0.0	7.0	83.0	-69.0	1.0	-87.0	98504.0	531.0	0.0	0.0	0.0	0.0	30.0	-78.0	-104447.0	0.0	0.8190141320228577	0.44350281357765203	0.0	2048.0	2072.0	2552.0	72.0	72.0	72.0	72.0	1517002939880.0
2016-03-31 12:29:29.970	0.0	-0.25	0.0	0.0	7.0	83.0	-69.0	1.0	-87.0	98498.0	531.0	0.0	0.0	0.0	0.0	24.0	-70.0	-104456.0	0.0	0.16326041519641876	0.7087774872779846	0.0	2060.0	2060.0	2564.0	72.0	72.0	72.0	72.0	1517005944702.0
2016-03-31 12:29:29.975	0.0	-0.25	0.0	0.0	7.0	83.0	-82.0	-6.0	-92.0	98498.0	531.0	0.0	0.0	0.0	0.0	27.0	-53.0	-104440.0	0.0	-0.04222727194428444	0.09981193393468857	0.0	2048.0	2052.0	2580.0	72.0	72.0	72.0	72.0	1517007949645.0
2016-03-31 12:29:29.980	0.0	-0.25	0.0	0.0	7.0	83.0	-82.0	-6.0	-92.0	98504.0	531.0	0.0	0.0	0.0	0.0	37.0	-50.0	-104427.0	0.0	0.13241104781627655	-0.4805866777896881	0.0	2040.0	2024.0	2580.0	72.0	72.0	72.0	72.0	1517010954681.0
2016-03-31 12:29:29.985	0.0	-0.25	0.0	0.0	7.0	83.0	-83.0	11.0	-95.0	98510.0	531.0	0.0	0.0	0.0	0.0	40.0	-69.0	-104399.0	0.0	0.23646968603134155	-0.7658512592315674	0.0	2044.0	2028.0	2564.0	72.0	72.0	72.0	72.0	1517012959808.0
2016-03-31 12:29:29.990	0.0	-0.25	0.0	0.0	7.0	83.0	-83.0	11.0	-95.0	98507.0	531.0	0.0	0.0	0.0	0.0	33.0	-78.0	-104405.0	0.0	0.18800652027130127	-0.08724772185087204	0.0	2056.0	2064.0	2552.0	72.0	72.0	72.0	72.0	1517015964660.0
2016-03-31 12:29:29.995	0.0	-0.25	0.0	0.0	7.0	83.0	-76.0	20.0	-94.0	98501.0	531.0	0.0	0.0	0.0	0.0	33.0	-71.0	-104430.0	0.0	0.019002962857484814	0.4888299405574799	0.0	2068.0	2064.0	2564.0	72.0	72.0	72.0	72.0	1517017969757.0
2016-03-31 12:29:30.000	0.0	-0.25	0.0	0.0	7.0	83.0	-76.0	20.0	-94.0	98501.0	531.0	0.0	0.0	0.0	0.0	48.0	-58.0	-104431.0	0.0	0.22113294899463654	0.34145379066467285	0.0	2056.0	2048.0	2576.0	72.0	72.0	72.0	72.0	1517020974945.0
2016-03-31 12:29:30.005	0.0	-0.25	0.0	0.0	7.0	83.0	-75.0	17.0	-91.0	98504.0	531.0	0.0	0.0	0.0	0.0	60.0	-51.0	-104440.0	0.0	0.7418140172958374	-0.16723264753818512	0.0	2048.0	2036.0	2580.0	72.0	72.0	72.0	72.0	1517022979797.0
2016-03-31 12:29:30.010	0.0	-0.25	0.0	0.0	7.0	83.0	-75.0	17.0	-91.0	98501.0	531.0	0.0	0.0	0.0	0.0	65.0	-65.0	-104429.0	0.0	1.0673289299011228	-0.647273063659668	0.0	2044.0	2036.0	2568.0	72.0	72.0	72.0	72.0	1517024984802.0
2016-03-31 12:29:30.015	0.0	-0.25	0.0	0.0	7.0	83.0	-76.0	0.0	-92.0	98495.0	531.0	0.0	0.0	0.0	0.0	47.0	-78.0	-104433.0	0.0	1.0364891290664673	-0.3993072509765625	0.0	2048.0	2060.0	2556.0	72.0	72.0	72.0	72.0	1517027989776.0
2016-03-31 12:29:30.020	0.0	-0.25	0.0	0.0	7.0	83.0	-76.0	0.0	-92.0	98498.0	531.0	0.0	0.0	0.0	0.0	32.0	-74.0	-104458.0	0.0	0.7207140922546387	-0.1123918890953064	0.0	2064.0	2072.0	2560.0	72.0	72.0	72.0	72.0	1517029994750.0
2016-03-31 12:29:30.025	0.0	-0.25	0.0	0.0	7.0	83.0	-85.0	-5.0	-89.0	98504.0	531.0	0.0	0.0	0.0	0.0	35.0	-67.0	-104448.0	0.0	0.5704957246780396	-0.2907813489437103	0.0	2056.0	2048.0	2576.0	72.0	72.0	72.0	72.0	1517568000274.0
2016-03-31 12:29:30.030	0.0	-0.25	0.0	0.0	7.0	83.0	-85.0	-5.0	-89.0	98504.0	531.0	0.0	0.0	0.0	0.0	44.0	-56.0	-104444.0	0.0	0.904138445854187	-0.8279545307159424	0.0	2052.0	2040.0	2580.0	72.0	72.0	72.0	72.0	1517570005096.0
2016-03-31 12:29:30.035	0.0	-0.25	0.0	0.0	7.0	83.0	-78.0	8.0	-96.0	98498.0	531.0	0.0	0.0	0.0	0.0	57.0	-67.0	-104420.0	0.0	1.1028950214385986	-1.1040054559707642	0.0	2036.0	2024.0	2568.0	72.0	72.0	72.0	72.0	1517572009948.0
2016-03-31 12:29:30.040	0.0	-0.25	0.0	0.0	7.0	83.0	-78.0	8.0	-96.0	98501.0	531.0	0.0	0.0	0.0	0.0	46.0	-81.0	-104404.0	0.0	1.0468069314956665	-0.7960234284400941	0.0	2036.0	2052.0	2552.0	72.0	72.0	72.0	72.0	1517575014923.0
2016-03-31 12:29:30.045	0.0	-0.25	0.0	0.0	7.0	83.0	-70.0	16.0	-94.0	98492.0	531.0	0.0	0.0	0.0	0.0	35.0	-83.0	-104419.0	0.0	0.5632275938987732	-0.1712726652622223	0.0	2060.0	2068.0	2560.0	72.0	72.0	72.0	72.0	1517577019958.0
2016-03-31 12:29:30.050	0.0	-0.25	0.0	0.0	7.0	83.0	-70.0	16.0	-94.0	98489.0	531.0	0.0	0.0	0.0	0.0	36.0	-76.0	-104416.0	0.0	0.2160404771566391	-0.09021420031785964	0.0	2068.0	2052.0	2568.0	72.0	72.0	72.0	72.0	1517580024841.0
2016-03-31 12:29:30.055	0.0	-0.25	0.0	0.0	7.0	83.0	-71.0	17.0	-89.0	98498.0	531.0	0.0	0.0	0.0	0.0	49.0	-63.0	-104422.0	0.0	0.4971571266651154	-0.4975763261318207	0.0	2056.0	2036.0	2580.0	72.0	72.0	72.0	72.0	1517582029907.0
2016-03-31 12:29:30.060	0.0	-0.25	0.0	0.0	7.0	83.0	-71.0	17.0	-89.0	98498.0	531.0	0.0	0.0	0.0	0.0	66.0	-65.0	-104415.0	0.0	1.0013340711593628	-0.7550826072692871	0.0	2048.0	2028.0	2576.0	72.0	72.0	72.0	72.0	1517585035034.0
2016-03-31 12:29:30.065	0.0	-0.25	0.0	0.0	7.0	83.0	-81.0	7.0	-85.0	98501.0	531.0	0.0	0.0	0.0	0.0	59.0	-81.0	-104406.0	0.0	1.3985642194747925	-0.5839428305625916	0.0	2040.0	2044.0	2556.0	72.0	72.0	72.0	72.0	1517587040313.0
2016-03-31 12:29:30.070	0.0	-0.25	0.0	0.0	7.0	83.0	-81.0	7.0	-85.0	98504.0	531.0	0.0	0.0	0.0	0.0	44.0	-91.0	-104418.0	0.0	1.134528398513794	0.06846725195646286	0.0	2044.0	2068.0	2556.0	72.0	72.0	72.0	72.0	1517589044982.0
2016-03-31 12:29:30.075	0.0	-0.25	0.0	0.0	7.0	83.0	-80.0	-2.0	-88.0	98504.0	531.0	0.0	0.0	0.0	0.0	35.0	-86.0	-104425.0	0.0	0.6627920866012573	0.18484191596508026	0.0	2068.0	2060.0	2568.0	72.0	72.0	72.0	72.0	1517592050018.0
2016-03-31 12:29:30.080	0.0	-0.25	0.0	0.0	7.0	83.0	-80.0	-2.0	-88.0	98504.0	531.0	0.0	0.0	0.0	0.0	44.0	-74.0	-104420.0	0.0	0.5027714967727661	-0.2706241011619568	0.0	2064.0	2044.0	2576.0	72.0	72.0	72.0	72.0	1517594054992.0
2016-03-31 12:29:30.085	0.0	-0.25	0.0	0.0	7.0	83.0	-78.0	2.0	-98.0	98507.0	531.0	0.0	0.0	0.0	0.0	59.0	-66.0	-104414.0	0.0	0.8857387900352478	-0.7620801329612732	0.0	2052.0	2028.0	2572.0	72.0	72.0	72.0	72.0	1517597060333.0
2016-03-31 12:29:30.090	0.0	-0.25	0.0	0.0	7.0	83.0	-78.0	2.0	-98.0	98501.0	531.0	0.0	0.0	0.0	0.0	61.0	-79.0	-104395.0	0.0	1.3362900018692017	-0.7785859704017639	0.0	2036.0	2036.0	2560.0	72.0	72.0	72.0	72.0	1517599065093.0
2016-03-31 12:29:30.095	0.0	-0.25	0.0	0.0	7.0	83.0	-63.0	3.0	-91.0	98501.0	531.0	0.0	0.0	0.0	0.0	45.0	-92.0	-104397.0	0.0	1.3893712759017944	-0.1842384934425354	0.0	2044.0	2064.0	2552.0	72.0	72.0	72.0	72.0	1517602070251.0
2016-03-31 12:29:30.100	0.0	-0.25	0.0	0.0	7.0	83.0	-63.0	3.0	-91.0	98504.0	531.0	0.0	0.0	0.0	0.0	33.0	-91.0	-104420.0	0.0	0.967133641242981	0.10295896232128143	0.0	2060.0	2072.0	2556.0	72.0	72.0	72.0	72.0	1517604075103.0
2016-03-31 12:29:30.105	0.0	-0.25	0.0	0.0	7.0	83.0	-79.0	9.0	-87.0	98495.0	531.0	0.0	0.0	0.0	0.0	35.0	-82.0	-104430.0	0.0	0.6318507790565491	-0.3035842776298523	0.0	2064.0	2048.0	2572.0	72.0	72.0	72.0	72.0	1517607080200.0
2016-03-31 12:29:30.110	0.0	-0.25	0.0	0.0	7.0	83.0	-79.0	9.0	-87.0	98495.0	531.0	0.0	0.0	0.0	0.0	50.0	-68.0	-104443.0	0.0	0.7844222784042358	-1.0292257070541382	0.0	2052.0	2036.0	2580.0	72.0	72.0	72.0	72.0	1517609085052.0
2016-03-31 12:29:30.115	0.0	-0.25	0.0	0.0	7.0	83.0	-87.0	9.0	-85.0	98507.0	531.0	0.0	0.0	0.0	0.0	63.0	-75.0	-104431.0	0.0	1.1312544345855713	-1.305205225944519	0.0	2040.0	2028.0	2568.0	72.0	72.0	72.0	72.0	1517611090026.0
2016-03-31 12:29:30.120	0.0	-0.25	0.0	0.0	7.0	83.0	-87.0	9.0	-85.0	98510.0	531.0	0.0	0.0	0.0	0.0	53.0	-87.0	-104421.0	0.0	1.251143217086792	-0.8346214294433594	0.0	2036.0	2052.0	2556.0	72.0	72.0	72.0	72.0	1517614095062.0
2016-03-31 12:29:30.125	0.0	-0.25	0.0	0.0	7.0	83.0	-84.0	10.0	-90.0	98504.0	531.0	0.0	0.0	0.0	0.0	37.0	-86.5	-104435.0	0.0	0.5144842714071274	-0.27490296959877014	0.0	2058.0	2064.0	2562.0	72.0	72.0	72.0	72.0	1517617602691.0
2016-03-31 12:29:30.130	0.0	-0.25	0.0	0.0	7.0	83.0	-84.0	10.0	-90.0	98504.0	531.0	0.0	0.0	0.0	0.0	37.0	-86.5	-104435.0	0.0	0.5144842714071274	-0.27490296959877014	0.0	2058.0	2064.0	2562.0	72.0	72.0	72.0	72.0	1517617602691.0
2016-03-31 12:29:30.135	0.0	-0.25	0.0	0.0	7.0	83.0	-69.0	9.0	-87.0	98501.0	531.0	0.0	0.0	0.0	0.0	44.0	-69.0	-104441.0	0.0	0.15760499238967896	-0.9576045274734496	0.0	2060.0	2040.0	2580.0	72.0	72.0	72.0	72.0	1517621110168.0
2016-03-31 12:29:30.140	0.0	-0.25	0.0	0.0	7.0	83.0	-69.0	9.0	-87.0	98507.0	531.0	0.0	0.0	0.0	0.0	60.0	-67.0	-104437.0	0.0	0.5681959390640259	-1.2875583171844482	0.0	2044.0	2024.0	2576.0	72.0	72.0	72.0	72.0	1517624115173.0
2016-03-31 12:29:30.145	0.0	-0.25	0.0	0.0	7.0	83.0	-68.0	2.0	-92.0	98501.0	531.0	0.0	0.0	0.0	0.0	56.0	-79.0	-104420.0	0.0	0.9135050773620604	-1.0130642652511597	0.0	2036.0	2040.0	2560.0	72.0	72.0	72.0	72.0	1517626120330.0
2016-03-31 12:29:30.150	0.0	-0.25	0.0	0.0	7.0	83.0	-68.0	2.0	-92.0	98498.0	531.0	0.0	0.0	0.0	0.0	41.0	-86.0	-104425.0	0.0	0.7724044919013977	-0.1585998386144638	0.0	2048.0	2064.0	2556.0	72.0	72.0	72.0	72.0	1517629125152.0
2016-03-31 12:29:30.155	0.0	-0.25	0.0	0.0	7.0	83.0	-90.0	16.0	-92.0	98495.0	531.0	0.0	0.0	0.0	0.0	30.0	-81.0	-104440.0	0.0	0.2908463776111603	0.20189809799194336	0.0	2060.0	2064.0	2564.0	72.0	72.0	72.0	72.0	1517631130249.0
2016-03-31 12:29:30.160	0.0	-0.25	0.0	0.0	7.0	83.0	-90.0	16.0	-92.0	98498.0	531.0	0.0	0.0	0.0	0.0	36.0	-72.0	-104435.0	0.0	0.056358899921178825	-0.22250838577747345	0.0	2064.0	2044.0	2580.0	72.0	72.0	72.0	72.0	1517634135498.0
2016-03-31 12:29:30.165	0.0	-0.25	0.0	0.0	7.0	83.0	-84.0	16.0	-94.0	98507.0	531.0	0.0	0.0	0.0	0.0	55.0	-66.0	-104432.0	0.0	0.3896994590759277	-0.7332804203033447	0.0	2056.0	2028.0	2580.0	72.0	72.0	72.0	72.0	1517636140289.0
2016-03-31 12:29:30.170	0.0	-0.25	0.0	0.0	7.0	83.0	-84.0	16.0	-94.0	98507.0	531.0	0.0	0.0	0.0	0.0	60.0	-80.0	-104408.0	0.0	0.8638951778411865	-0.8325616121292114	0.0	2036.0	2032.0	2568.0	72.0	72.0	72.0	72.0	1517638145263.0
2016-03-31 12:29:30.175	0.0	-0.25	0.0	0.0	7.0	83.0	-74.0	12.0	-88.0	98507.0	531.0	0.0	0.0	0.0	0.0	45.0	-90.0	-104405.0	0.0	0.9825302362442015	-0.13731640577316284	0.0	2036.0	2056.0	2552.0	72.0	72.0	72.0	72.0	1517641150299.0
2016-03-31 12:29:30.180	0.0	-0.25	0.0	0.0	7.0	83.0	-74.0	12.0	-88.0	98504.0	531.0	0.0	0.0	0.0	0.0	26.0	-89.0	-104424.0	0.0	0.4861901998519898	0.3552790582180023	0.0	2052.0	2068.0	2556.0	72.0	72.0	72.0	72.0	1517643155242.0
2016-03-31 12:29:30.185	0.0	-0.25	0.0	0.0	7.0	83.0	-67.0	1.0	-83.0	98504.0	531.0	0.0	0.0	0.0	0.0	24.0	-79.0	-104433.0	0.0	0.009725541807711123	0.22002105414867398	0.0	2068.0	2048.0	2572.0	72.0	72.0	72.0	72.0	1517646160491.0
2016-03-31 12:29:30.190	0.0	-0.25	0.0	0.0	7.0	83.0	-67.0	1.0	-83.0	98501.0	531.0	0.0	0.0	0.0	0.0	40.0	-67.0	-104434.0	0.0	-0.016721393913030624	-0.4388633370399475	0.0	2056.0	2040.0	2580.0	72.0	72.0	72.0	72.0	1517648165344.0
2016-03-31 12:29:30.195	0.0	-0.25	0.0	0.0	7.0	83.0	-77.0	-3.0	-99.0	98492.0	531.0	0.0	0.0	0.0	0.0	60.0	-74.0	-104421.0	0.0	0.44849732518196106	-0.7835112214088441	0.0	2044.0	2028.0	2572.0	72.0	72.0	72.0	72.0	1517651170562.0
2016-03-31 12:29:30.200	0.0	-0.25	0.0	0.0	7.0	83.0	-77.5	4.5	-98.5	98498.0	531.0	0.0	0.0	0.0	0.0	45.5	-85.5	-104412.5	0.0	0.7545728087425232	-0.2140558436512947	0.0	2044.0	2058.0	2556.0	72.0	72.0	72.0	72.0	1517654677947.5
2016-03-31 12:29:30.205	0.0	-0.25	0.0	0.0	7.0	83.0	-77.5	4.5	-98.5	98498.0	531.0	0.0	0.0	0.0	0.0	45.5	-85.5	-104412.5	0.0	0.7545728087425232	-0.2140558436512947	0.0	2044.0	2058.0	2556.0	72.0	72.0	72.0	72.0	1517654677947.5
2016-03-31 12:29:30.210	0.0	-0.25	0.0	0.0	7.0	83.0	-78.0	12.0	-98.0	98495.0	531.0	0.0	0.0	0.0	0.0	27.0	-79.0	-104429.0	0.0	0.27810731530189514	0.1519368290901184	0.0	2060.0	2056.0	2564.0	72.0	72.0	72.0	72.0	1517658185302.0
2016-03-31 12:29:30.215	0.0	-0.25	0.0	0.0	7.0	83.0	-76.0	22.0	-92.0	98498.0	531.0	0.0	0.0	0.0	0.0	40.0	-68.0	-104425.0	0.0	0.11088048666715622	-0.36224907636642456	0.0	2068.0	2040.0	2580.0	72.0	72.0	72.0	72.0	1517660190307.0
2016-03-31 12:29:30.220	0.0	-0.25	0.0	0.0	7.0	83.0	-76.0	22.0	-92.0	98501.0	531.0	0.0	0.0	0.0	0.0	62.0	-67.0	-104420.0	0.0	0.4289744794368744	-0.7258806824684143	0.0	2048.0	2028.0	2576.0	72.0	72.0	72.0	72.0	1517663195404.0
2016-03-31 12:29:30.225	0.0	-0.25	0.0	0.0	7.0	83.0	-79.0	11.0	-81.0	98498.0	531.0	0.0	0.0	0.0	0.0	65.0	-78.0	-104400.0	0.0	0.8484268784523009	-0.6477376222610474	0.0	2036.0	2044.0	2560.0	72.0	72.0	72.0	72.0	1517665200683.0
2016-03-31 12:29:30.230	0.0	-0.25	0.0	0.0	7.0	83.0	-79.0	11.0	-81.0	98495.0	531.0	0.0	0.0	0.0	0.0	49.0	-84.0	-104410.0	0.0	0.8099182248115541	-0.051056064665317535	0.0	2040.0	2064.0	2552.0	72.0	72.0	72.0	72.0	1517668205657.0
2016-03-31 12:29:30.235	0.0	-0.25	0.0	0.0	7.0	83.0	-72.0	-6.0	-98.0	98495.0	531.0	0.0	0.0	0.0	0.0	31.0	-79.0	-104428.0	0.0	0.3321504294872284	0.11439669132232665	0.0	2056.0	2064.0	2560.0	72.0	72.0	72.0	72.0	1517670210479.0
2016-03-31 12:29:30.240	0.0	-0.25	0.0	0.0	7.0	83.0	-72.0	-6.0	-98.0	98498.0	531.0	0.0	0.0	0.0	0.0	37.0	-68.0	-104427.0	0.0	-0.09500475972890854	-0.3353996574878693	0.0	2064.0	2048.0	2576.0	72.0	72.0	72.0	72.0	1517673215423.0
2016-03-31 12:29:30.245	0.0	-0.25	0.0	0.0	7.0	83.0	-77.0	1.0	-93.0	98492.0	531.0	0.0	0.0	0.0	0.0	56.0	-61.0	-104424.0	0.0	-0.03105421364307404	-0.9222459197044371	0.0	2056.0	2032.0	2580.0	72.0	72.0	72.0	72.0	1517675220397.0
2016-03-31 12:29:30.250	0.0	-0.25	0.0	0.0	7.0	83.0	-77.0	1.0	-93.0	98489.0	531.0	0.0	0.0	0.0	0.0	68.0	-70.0	-104404.0	0.0	0.4185469150543213	-1.054768443107605	0.0	2040.0	2032.0	2568.0	72.0	72.0	72.0	72.0	1517678225494.0
2016-03-31 12:29:30.255	0.0	-0.25	0.0	0.0	7.0	83.0	-81.0	15.0	-91.0	98501.0	531.0	0.0	0.0	0.0	0.0	56.0	-81.0	-104401.0	0.0	0.6099725961685181	-0.488338053226471	0.0	2036.0	2056.0	2556.0	72.0	72.0	72.0	72.0	1517680230499.0
2016-03-31 12:29:30.260	0.0	-0.25	0.0	0.0	7.0	83.0	-81.0	15.0	-91.0	98498.0	531.0	0.0	0.0	0.0	0.0	34.0	-82.0	-104421.0	0.0	0.3342697322368622	-0.05745375528931618	0.0	2048.0	2072.0	2560.0	72.0	72.0	72.0	72.0	1517683235687.0
2016-03-31 12:29:30.265	0.0	-0.25	0.0	0.0	7.0	83.0	-74.0	18.0	-86.0	98492.0	531.0	0.0	0.0	0.0	0.0	31.0	-74.0	-104428.0	0.0	-0.1264687031507492	-0.2291416674852371	0.0	2068.0	2052.0	2572.0	72.0	72.0	72.0	72.0	1517685240783.0
2016-03-31 12:29:30.270	0.0	-0.25	0.0	0.0	7.0	83.0	-74.0	18.0	-86.0	98495.0	531.0	0.0	0.0	0.0	0.0	47.0	-63.0	-104430.0	0.0	-0.20838886499404907	-0.9281994700431824	0.0	2060.0	2040.0	2580.0	72.0	72.0	72.0	72.0	1517687245544.0
2016-03-31 12:29:30.275	0.0	-0.25	0.0	0.0	7.0	83.0	-78.0	-8.0	-92.0	98495.0	531.0	0.0	0.0	0.0	0.0	68.0	-64.0	-104424.0	0.0	0.258076936006546	-1.326929211616516	0.0	2048.0	2032.0	2572.0	72.0	72.0	72.0	72.0	1517690250518.0
2016-03-31 12:29:30.280	0.0	-0.25	0.0	0.0	7.0	83.0	-78.0	-8.0	-92.0	98495.0	531.0	0.0	0.0	0.0	0.0	67.0	-73.0	-104414.0	0.0	0.6713166236877441	-1.0516492128372192	0.0	2036.0	2044.0	2560.0	72.0	72.0	72.0	72.0	1517692255523.0
2016-03-31 12:29:30.285	0.0	-0.25	0.0	0.0	7.0	83.0	-71.0	-7.0	-95.0	98495.0	531.0	0.0	0.0	0.0	0.0	49.0	-78.0	-104426.0	0.0	0.5749959349632263	-0.5178887248039246	0.0	2036.0	2072.0	2552.0	72.0	72.0	72.0	72.0	1517695260681.0
2016-03-31 12:29:30.290	0.0	-0.25	0.0	0.0	7.0	83.0	-71.0	-7.0	-95.0	98501.0	531.0	0.0	0.0	0.0	0.0	40.0	-72.0	-104435.0	0.0	0.06981392949819565	-0.37595972418785095	0.0	2064.0	2060.0	2564.0	72.0	72.0	72.0	72.0	1517697266021.0
2016-03-31 12:29:30.295	0.0	-0.25	0.0	0.0	7.0	83.0	-67.0	9.0	-99.0	98504.0	531.0	0.0	0.0	0.0	0.0	49.0	-64.0	-104429.0	0.0	-0.3313444256782532	-0.8489423394203186	0.0	2068.0	2032.0	2576.0	72.0	72.0	72.0	72.0	1517700270721.0
2016-03-31 12:29:30.300	0.0	-0.25	0.0	0.0	7.0	83.0	-67.0	9.0	-99.0	98498.0	531.0	0.0	0.0	0.0	0.0	69.0	-62.0	-104422.0	0.0	-0.00865370687097311	-1.1998971700668335	0.0	2056.0	2032.0	2576.0	72.0	72.0	72.0	72.0	1517702275665.0
2016-03-31 12:29:30.305	0.0	-0.25	0.0	0.0	7.0	83.0	-75.0	17.0	-95.0	98495.0	531.0	0.0	0.0	0.0	0.0	76.0	-72.0	-104408.0	0.0	0.4921099841594696	-0.96147483587265	0.0	2036.0	2040.0	2564.0	72.0	72.0	72.0	72.0	1517705280822.0
2016-03-31 12:29:30.310	0.0	-0.25	0.0	0.0	7.0	83.0	-75.0	17.0	-95.0	98495.0	531.0	0.0	0.0	0.0	0.0	60.0	-85.0	-104410.0	0.0	0.6976413130760193	-0.30780935287475586	0.0	2032.0	2060.0	2552.0	72.0	72.0	72.0	72.0	1517707285583.0
2016-03-31 12:29:30.315	0.0	-0.25	0.0	0.0	7.0	83.0	-89.0	3.0	-87.0	98495.0	531.0	0.0	0.0	0.0	0.0	44.0	-82.0	-104432.0	0.0	0.2436426430940628	0.00147614732850343	0.0	2052.0	2072.0	2560.0	72.0	72.0	72.0	72.0	1517709290771.0
2016-03-31 12:29:30.320	0.0	-0.25	0.0	0.0	7.0	83.0	-83.5	1.5	-89.5	98501.0	531.0	0.0	0.0	0.0	0.0	55.0	-72.5	-104427.0	0.0	-0.44718803465366364	-0.7260419428348542	0.0	2064.0	2036.0	2576.0	72.0	72.0	72.0	72.0	1517713798400.5
2016-03-31 12:29:30.325	0.0	-0.25	0.0	0.0	7.0	83.0	-83.5	1.5	-89.5	98501.0	531.0	0.0	0.0	0.0	0.0	55.0	-72.5	-104427.0	0.0	-0.44718803465366364	-0.7260419428348542	0.0	2064.0	2036.0	2576.0	72.0	72.0	72.0	72.0	1517713798400.5
2016-03-31 12:29:30.330	0.0	-0.25	0.0	0.0	7.0	83.0	-78.0	0.0	-92.0	98504.0	531.0	0.0	0.0	0.0	0.0	81.0	-73.0	-104414.0	0.0	-0.09651515632867813	-1.056036353111267	0.0	2040.0	2032.0	2568.0	72.0	72.0	72.0	72.0	1517717305725.0
2016-03-31 12:29:30.335	0.0	-0.25	0.0	0.0	7.0	83.0	-68.0	4.0	-90.0	98507.0	531.0	0.0	0.0	0.0	0.0	73.0	-85.0	-104401.0	0.0	0.3775867223739624	-0.5397719144821167	0.0	2032.0	2056.0	2556.0	72.0	72.0	72.0	72.0	1517719310760.0
2016-03-31 12:29:30.340	0.0	-0.25	0.0	0.0	7.0	83.0	-68.0	4.0	-90.0	98507.0	531.0	0.0	0.0	0.0	0.0	56.0	-84.0	-104426.0	0.0	0.13945195078849792	-0.03502698242664337	0.0	2040.0	2076.0	2556.0	72.0	72.0	72.0	72.0	1517722315734.0
2016-03-31 12:29:30.345	0.0	-0.25	0.0	0.0	7.0	83.0	-72.0	8.0	-90.0	98498.0	531.0	0.0	0.0	0.0	0.0	49.0	-82.0	-104430.0	0.0	-0.4715766906738281	-0.2365538775920868	0.0	2064.0	2048.0	2568.0	72.0	72.0	72.0	72.0	1517724321044.0
2016-03-31 12:29:30.350	0.0	-0.25	0.0	0.0	7.0	83.0	-72.0	8.0	-90.0	98498.0	531.0	0.0	0.0	0.0	0.0	62.0	-72.0	-104430.0	0.0	-0.8083259463310242	-1.018153190612793	0.0	2064.0	2036.0	2580.0	72.0	72.0	72.0	72.0	1517727325836.0
2016-03-31 12:29:30.355	0.0	-0.25	0.0	0.0	7.0	83.0	-88.0	12.0	-90.0	98501.0	531.0	0.0	0.0	0.0	0.0	83.0	-74.0	-104424.0	0.0	-0.5512123107910156	-1.221252679824829	0.0	2052.0	2028.0	2576.0	72.0	72.0	72.0	72.0	1517729331085.0
2016-03-31 12:29:30.360	0.0	-0.25	0.0	0.0	7.0	83.0	-88.0	12.0	-90.0	98498.0	531.0	0.0	0.0	0.0	0.0	81.0	-85.0	-104403.0	0.0	0.005327528342604637	-0.8772598505020142	0.0	2032.0	2044.0	2560.0	72.0	72.0	72.0	72.0	1517731335845.0
2016-03-31 12:29:30.365	0.0	-0.25	0.0	0.0	7.0	83.0	-91.0	1.0	-91.0	98492.0	531.0	0.0	0.0	0.0	0.0	64.0	-88.0	-104414.0	0.0	0.0747985914349556	-0.11752016097307205	0.0	2036.0	2072.0	2552.0	72.0	72.0	72.0	72.0	1517734340881.0
2016-03-31 12:29:30.370	0.0	-0.25	0.0	0.0	7.0	83.0	-91.0	1.0	-91.0	98495.0	531.0	0.0	0.0	0.0	0.0	50.0	-85.0	-104418.0	0.0	-0.3859938085079193	0.061151914298534386	0.0	2056.0	2056.0	2564.0	71.0	73.0	70.0	72.0	1517736345916.0
2016-03-31 12:29:30.375	0.0	-0.25	0.0	0.0	7.0	83.0	-75.0	11.0	-93.0	98498.0	531.0	0.0	0.0	0.0	0.0	58.0	-76.0	-104409.0	0.0	-0.8438283205032349	-0.5641019940376282	0.0	2072.0	2040.0	2576.0	71.0	71.0	72.0	72.0	1517739350830.0
2016-03-31 12:29:30.380	0.0	-0.25	0.0	0.0	7.0	83.0	-75.0	11.0	-93.0	98498.0	531.0	0.0	0.0	0.0	0.0	81.0	-73.0	-104408.0	0.0	-0.7128772139549255	-0.9397170543670654	0.0	2056.0	2028.0	2576.0	70.0	70.0	73.0	73.0	1517741355895.0
2016-03-31 12:29:30.385	0.0	-0.25	0.0	0.0	7.0	83.0	-64.0	0.0	-90.0	98498.0	531.0	0.0	0.0	0.0	0.0	90.0	-84.0	-104390.0	0.0	-0.10120249539613724	-0.8608679771423341	0.0	2040.0	2036.0	2564.0	74.0	70.0	74.0	72.0	1517744361053.0
2016-03-31 12:29:30.390	0.0	-0.25	0.0	0.0	7.0	83.0	-64.0	0.0	-90.0	98492.0	531.0	0.0	0.0	0.0	0.0	78.0	-92.0	-104393.0	0.0	0.26220133900642395	-0.12872427701950073	0.0	2032.0	2064.0	2556.0	78.0	75.0	76.0	74.0	1517746366119.0
2016-03-31 12:29:30.395	0.0	-0.25	0.0	0.0	7.0	83.0	-83.0	7.0	-97.0	98486.0	531.0	0.0	0.0	0.0	0.0	57.0	-91.0	-104408.0	0.0	-0.05912303552031518	0.27340468764305115	0.0	2044.0	2064.0	2556.0	75.0	78.0	73.0	76.0	1517749370910.0
2016-03-31 12:29:30.400	0.0	-0.25	0.0	0.0	7.0	83.0	-83.0	7.0	-97.0	98486.0	531.0	0.0	0.0	0.0	0.0	53.0	-87.0	-104400.0	0.0	-0.6153582930564879	-0.14036333560943606	0.0	2072.0	2044.0	2572.0	75.0	76.0	75.0	76.0	1517751375885.0
2016-03-31 12:29:30.405	0.0	-0.25	0.0	0.0	7.0	83.0	-88.0	10.0	-92.0	98492.0	531.0	0.0	0.0	0.0	0.0	68.0	-81.0	-104402.0	0.0	-0.8554683923721313	-0.7029095888137817	0.0	2060.0	2036.0	2580.0	74.0	75.0	76.0	77.0	1517753380889.0
2016-03-31 12:29:30.410	0.0	-0.25	0.0	0.0	7.0	83.0	-88.0	10.0	-92.0	98495.0	531.0	0.0	0.0	0.0	0.0	82.0	-87.0	-104389.0	0.0	-0.3524855375289917	-0.9612321257591248	0.0	2044.0	2036.0	2572.0	76.0	74.0	76.0	76.0	1517756385894.0
2016-03-31 12:29:30.415	0.0	-0.25	0.0	0.0	7.0	83.0	-71.0	7.0	-85.0	98501.0	531.0	0.0	0.0	0.0	0.0	77.0	-96.0	-104387.0	0.0	0.07958457618951797	-0.520983874797821	0.0	2032.0	2052.0	2560.0	77.0	74.0	76.0	75.0	1517758391021.0
2016-03-31 12:29:30.420	0.0	-0.25	0.0	0.0	7.0	83.0	-71.0	7.0	-85.0	98504.0	531.0	0.0	0.0	0.0	0.0	56.0	-93.0	-104407.0	0.0	0.008175563998520374	-0.07877930998802185	0.0	2036.0	2068.0	2560.0	75.0	78.0	73.0	76.0	1517761396087.0
2016-03-31 12:29:30.425	0.0	-0.25	0.0	0.0	7.0	83.0	-67.0	-1.0	-93.0	98501.0	531.0	0.0	0.0	0.0	0.0	49.0	-85.0	-104414.0	0.0	-0.5623498558998108	-0.2318350672721863	0.0	2064.0	2052.0	2568.0	73.0	78.0	73.0	78.0	1517764401428.0
2016-03-31 12:29:30.430	0.0	-0.25	0.0	0.0	7.0	83.0	-67.0	-1.0	-93.0	98495.0	531.0	0.0	0.0	0.0	0.0	62.0	-76.0	-104413.0	0.0	-1.0424718856811523	-0.7648427486419678	0.0	2064.0	2036.0	2580.0	72.0	77.0	74.0	78.0	1517766406402.0
2016-03-31 12:29:30.435	0.0	-0.25	0.0	0.0	7.0	83.0	-88.0	10.0	-94.0	98498.0	531.0	0.0	0.0	0.0	0.0	83.0	-78.0	-104405.0	0.0	-0.7635369896888733	-1.0645787715911863	0.0	2048.0	2032.0	2572.0	74.0	75.0	75.0	78.0	1517768411071.0
2016-03-31 12:29:30.440	0.0	-0.25	0.0	0.0	7.0	83.0	-88.0	10.0	-94.0	98498.0	531.0	0.0	0.0	0.0	0.0	85.0	-88.0	-104393.0	0.0	-0.3618340492248535	-0.7709568738937378	0.0	2032.0	2048.0	2564.0	81.0	78.0	80.0	79.0	1517771415985.0
2016-03-31 12:29:30.445	0.0	-0.25	0.0	0.0	7.0	83.0	-76.0	12.0	-90.0	98486.0	531.0	0.0	0.0	0.0	0.0	64.0	-91.0	-104400.0	0.0	-0.2528662383556366	-0.2884355187416077	0.0	2032.0	2072.0	2556.0	81.0	80.0	78.0	79.0	1517773421142.0
2016-03-31 12:29:30.450	0.0	-0.25	0.0	0.0	7.0	83.0	-76.0	12.0	-90.0	98489.0	531.0	0.0	0.0	0.0	0.0	45.0	-83.0	-104417.0	0.0	-0.6857331991195679	-0.2544578015804291	0.0	2064.0	2056.0	2564.0	78.0	83.0	77.0	81.0	1517776426086.0
2016-03-31 12:29:30.455	0.0	-0.25	0.0	0.0	7.0	83.0	-76.0	12.0	-90.0	98489.0	531.0	0.0	0.0	0.0	0.0	45.0	-83.0	-104417.0	0.0	-0.6857331991195679	-0.2544578015804291	0.0	2064.0	2056.0	2564.0	78.0	83.0	77.0	81.0	1517776426086.0
2016-03-31 12:29:30.460	0.0	-0.25	0.0	0.0	7.0	83.0	-78.0	-4.0	-92.0	98501.0	531.0	0.0	0.0	0.0	0.0	46.0	-76.0	-104406.0	0.0	-1.133280873298645	-0.7804052829742432	0.0	2072.0	2036.0	2576.0	78.0	80.0	79.0	81.0	1517778431549.0
2016-03-31 12:29:30.465	0.0	-0.25	0.0	0.0	7.0	83.0	-78.0	-4.0	-92.0	98501.0	531.0	0.0	0.0	0.0	0.0	46.0	-76.0	-104406.0	0.0	-1.133280873298645	-0.7804052829742432	0.0	2072.0	2036.0	2576.0	78.0	80.0	79.0	81.0	1517778431549.0
2016-03-31 12:29:30.470	0.0	-0.25	0.0	0.0	7.0	83.0	-78.0	-4.0	-92.0	98501.0	531.0	0.0	0.0	0.0	0.0	46.0	-76.0	-104406.0	0.0	-1.133280873298645	-0.7804052829742432	0.0	2072.0	2036.0	2576.0	78.0	80.0	79.0	81.0	1517778431549.0
2016-03-31 12:29:30.475	0.0	-0.25	0.0	0.0	7.0	83.0	-78.0	-4.0	-92.0	98501.0	531.0	0.0	0.0	0.0	0.0	46.0	-76.0	-104406.0	0.0	-1.133280873298645	-0.7804052829742432	0.0	2072.0	2036.0	2576.0	78.0	80.0	79.0	81.0	1517778431549.0
2016-03-31 12:29:30.480	0.0	-0.25	0.0	0.0	7.0	83.0	-78.0	-4.0	-92.0	98501.0	531.0	0.0	0.0	0.0	0.0	46.0	-76.0	-104406.0	0.0	-1.133280873298645	-0.7804052829742432	0.0	2072.0	2036.0	2576.0	78.0	80.0	79.0	81.0	1517778431549.0
2016-03-31 12:29:30.485	0.0	-0.25	0.0	0.0	7.0	83.0	-78.0	-4.0	-92.0	98501.0	531.0	0.0	0.0	0.0	0.0	46.0	-76.0	-104406.0	0.0	-1.133280873298645	-0.7804052829742432	0.0	2072.0	2036.0	2576.0	78.0	80.0	79.0	81.0	1517778431549.0
2016-03-31 12:29:30.490	0.0	-0.25	0.0	0.0	7.0	83.0	-76.5	6.5	-92.5	98504.0	531.0	0.0	0.0	0.0	0.0	51.0	-88.0	-104421.0	0.0	-0.0336482971906662	-0.8570429980754852	0.0	2032.0	2044.0	2564.0	83.5	84.0	82.0	84.5	1517796968749.5
2016-03-31 12:29:30.495	0.0	-0.25	0.0	0.0	7.0	83.0	-76.5	6.5	-92.5	98504.0	531.0	0.0	0.0	0.0	0.0	51.0	-88.0	-104421.0	0.0	-0.0336482971906662	-0.8570429980754852	0.0	2032.0	2044.0	2564.0	83.5	84.0	82.0	84.5	1517796968749.5
2016-03-31 12:29:30.500	0.0	-0.25	0.0	0.0	7.0	83.0	-74.0	16.0	-92.0	98510.0	531.0	0.0	0.0	0.0	0.0	20.0	-89.0	-104450.0	0.0	-0.11379805207252502	-0.07614151388406754	0.0	2044.0	2068.0	2560.0	81.0	88.0	79.0	86.0	1517800476196.0
2016-03-31 12:29:30.505	0.0	-0.25	0.0	0.0	7.0	83.0	-85.0	-7.0	-97.0	98498.0	531.0	0.0	0.0	0.0	0.0	10.0	-86.0	-104434.0	0.0	-0.8012030720710754	-0.2360568344593048	0.0	2064.0	2032.0	2568.0	82.0	86.0	81.0	85.0	1517803481353.0
2016-03-31 12:29:30.510	0.0	-0.25	0.0	0.0	7.0	83.0	-85.0	-7.0	-97.0	98492.0	531.0	0.0	0.0	0.0	0.0	26.0	-85.0	-104424.0	0.0	-1.091130018234253	-0.6925258636474609	0.0	2064.0	2040.0	2576.0	83.0	82.0	84.0	85.0	1517805486267.0
2016-03-31 12:29:30.515	0.0	-0.25	0.0	0.0	7.0	83.0	-70.0	12.0	-92.0	98493.5	531.0	0.0	0.0	0.0	0.0	38.5	-98.5	-104401.5	0.0	-0.44444699585437775	-0.40225592255592346	0.0	2040.0	2042.0	2568.0	86.5	80.5	85.0	82.0	1517808993834.5
2016-03-31 12:29:30.520	0.0	-0.25	0.0	0.0	7.0	83.0	-70.0	12.0	-92.0	98493.5	531.0	0.0	0.0	0.0	0.0	38.5	-98.5	-104401.5	0.0	-0.44444699585437775	-0.40225592255592346	0.0	2040.0	2042.0	2568.0	86.5	80.5	85.0	82.0	1517808993834.5
2016-03-31 12:29:30.525	0.0	-0.25	0.0	0.0	7.0	83.0	-84.0	4.0	-88.0	98495.0	531.0	0.0	0.0	0.0	0.0	17.0	-99.0	-104431.0	0.0	-0.019857682287693024	0.2470108568668365	0.0	2040.0	2076.0	2560.0	82.0	86.0	81.0	84.0	1517812501342.0
2016-03-31 12:29:30.530	0.0	-0.25	0.0	0.0	7.0	83.0	-84.0	4.0	-88.0	98495.0	531.0	0.0	0.0	0.0	0.0	7.0	-94.0	-104427.0	0.0	-0.3778010904788971	0.05738222599029541	0.0	2068.0	2032.0	2568.0	81.0	86.0	81.0	86.0	1517815506317.0
2016-03-31 12:29:30.535	0.0	-0.25	0.0	0.0	7.0	83.0	-72.0	6.0	-92.0	98504.0	531.0	0.0	0.0	0.0	0.0	19.0	-91.0	-104419.0	0.0	-0.6692115068435669	-0.6477241516113281	0.0	2064.0	2048.0	2576.0	82.0	83.0	83.0	85.0	1517817511322.0
2016-03-31 12:29:30.540	0.0	-0.25	0.0	0.0	7.0	83.0	-72.0	6.0	-92.0	98501.0	531.0	0.0	0.0	0.0	0.0	31.0	-92.0	-104422.0	0.0	-0.445792555809021	-0.6153360605239868	0.0	2044.0	2028.0	2568.0	86.0	87.0	87.0	89.0	1517820516571.0
2016-03-31 12:29:30.545	0.0	-0.25	0.0	0.0	7.0	83.0	-81.0	11.0	-91.0	98498.0	531.0	0.0	0.0	0.0	0.0	26.0	-108.0	-104400.0	0.0	0.028673861175775524	-0.6311114430427551	0.0	2036.0	2052.0	2564.0	90.0	85.0	88.0	87.0	1517822521545.0
2016-03-31 12:29:30.550	0.0	-0.25	0.0	0.0	7.0	83.0	-81.0	11.0	-91.0	98498.0	531.0	0.0	0.0	0.0	0.0	7.0	-102.0	-104448.0	0.0	0.13752688467502594	-0.03368731215596199	0.0	2040.0	2076.0	2560.0	85.0	92.0	83.0	90.0	1517825526580.0
2016-03-31 12:29:30.555	0.0	-0.25	0.0	0.0	7.0	83.0	-75.0	9.0	-93.0	98495.0	531.0	0.0	0.0	0.0	0.0	0.0	-101.0	-104441.0	0.0	-0.11963894963264465	-0.06527822464704514	0.0	2068.0	2032.0	2568.0	84.0	91.0	83.0	91.0	1517827531616.0
2016-03-31 12:29:30.560	0.0	-0.25	0.0	0.0	7.0	83.0	-75.0	9.0	-93.0	98495.0	531.0	0.0	0.0	0.0	0.0	17.0	-99.0	-104429.0	0.0	-0.40247204899787903	-0.6897653937339783	0.0	2064.0	2048.0	2576.0	86.0	87.0	87.0	90.0	1517829536407.0
2016-03-31 12:29:30.565	0.0	-0.25	0.0	0.0	7.0	83.0	-70.0	14.0	-94.0	98498.0	531.0	0.0	0.0	0.0	0.0	37.0	-98.0	-104432.0	0.0	-0.12832742929458618	-0.5439553260803223	0.0	2048.0	2028.0	2572.0	86.0	87.0	88.0	89.0	1517832541442.0
2016-03-31 12:29:30.570	0.0	-0.25	0.0	0.0	7.0	83.0	-70.0	14.0	-94.0	98498.0	531.0	0.0	0.0	0.0	0.0	38.0	-114.0	-104405.0	0.0	0.28173914551734924	-0.6964334845542908	0.0	2032.0	2052.0	2564.0	90.0	85.0	88.0	87.0	1517834546356.0
2016-03-31 12:29:30.575	0.0	-0.25	0.0	0.0	7.0	83.0	-79.0	3.0	-97.0	98489.0	531.0	0.0	0.0	0.0	0.0	22.0	-105.0	-104457.0	0.0	0.3666381239891052	-0.06003333628177643	0.0	2040.0	2072.0	2560.0	84.0	92.0	84.0	90.0	1517837551483.0
2016-03-31 12:29:30.580	0.0	-0.25	0.0	0.0	7.0	83.0	-79.0	3.0	-97.0	98492.0	531.0	0.0	0.0	0.0	0.0	12.0	-107.0	-104440.0	0.0	0.03519899025559425	-0.0431383028626442	0.0	2068.0	2028.0	2568.0	85.0	90.0	84.0	90.0	1517839556427.0
2016-03-31 12:29:30.585	0.0	-0.25	0.0	0.0	7.0	83.0	-74.0	10.0	-84.0	98501.0	531.0	0.0	0.0	0.0	0.0	26.0	-104.0	-104420.0	0.0	-0.31759247183799744	-0.506914496421814	0.0	2068.0	2044.0	2576.0	88.0	86.0	89.0	88.0	1517842561889.0
2016-03-31 12:29:30.590	0.0	-0.25	0.0	0.0	7.0	83.0	-74.0	10.0	-84.0	98504.0	531.0	0.0	0.0	0.0	0.0	41.0	-106.0	-104406.0	0.0	-0.08814462274312973	-0.0982835218310356	0.0	2044.0	2020.0	2572.0	93.0	88.0	94.0	90.0	1517844566558.0
2016-03-31 12:29:30.595	0.0	-0.25	0.0	0.0	7.0	83.0	-78.0	12.0	-100.0	98498.0	531.0	0.0	0.0	0.0	0.0	37.0	-124.0	-104364.0	0.0	0.2819853127002716	-0.11624012887477875	0.0	2032.0	2052.0	2564.0	99.0	85.0	96.0	86.0	1517847571472.0
2016-03-31 12:29:30.600	0.0	-0.25	0.0	0.0	7.0	83.0	-78.0	12.0	-100.0	98492.0	531.0	0.0	0.0	0.0	0.0	23.0	-115.0	-104406.0	0.0	0.4146611988544464	0.7090280652046204	0.0	2048.0	2068.0	2564.0	92.0	92.0	92.0	90.0	1517849576416.0
2016-03-31 12:29:30.605	0.0	-0.25	0.0	0.0	7.0	83.0	-78.0	2.0	-84.0	98492.0	531.0	0.0	0.0	0.0	0.0	17.0	-121.0	-104375.0	0.0	0.09400862455368042	0.6796335577964783	0.0	2064.0	2032.0	2560.0	94.0	90.0	92.0	90.0	1517851581542.0
2016-03-31 12:29:30.610	0.0	-0.25	0.0	0.0	7.0	83.0	-78.0	2.0	-84.0	98498.0	531.0	0.0	0.0	0.0	0.0	34.0	-111.0	-104365.0	0.0	-0.17140576243400574	0.1296994388103485	0.0	2064.0	2048.0	2576.0	93.0	88.0	96.0	89.0	1517854586517.0
2016-03-31 12:29:30.615	0.0	-0.25	0.0	0.0	7.0	83.0	-74.0	8.0	-88.0	98498.0	531.0	0.0	0.0	0.0	0.0	56.0	-112.0	-104355.0	0.0	-0.04555393010377884	0.3691083192825317	0.0	2040.0	2016.0	2576.0	93.0	87.0	95.0	90.0	1517856591674.0
2016-03-31 12:29:30.620	0.0	-0.25	0.0	0.0	7.0	83.0	-74.0	8.0	-88.0	98498.0	531.0	0.0	0.0	0.0	0.0	49.0	-123.0	-104336.0	0.0	0.17953559756278992	0.14373262226581573	0.0	2024.0	2056.0	2560.0	97.0	87.0	94.0	88.0	1517859597015.0
2016-03-31 12:29:30.625	0.0	-0.25	0.0	0.0	7.0	83.0	-79.0	5.0	-95.0	98498.0	531.0	0.0	0.0	0.0	0.0	33.0	-117.0	-104390.0	0.0	0.17245344817638394	0.9425721764564514	0.0	2060.0	2068.0	2564.0	89.0	95.0	89.0	93.0	1517861601867.0
2016-03-31 12:29:30.630	0.0	-0.25	0.0	0.0	7.0	83.0	-79.0	5.0	-95.0	98498.0	531.0	0.0	0.0	0.0	0.0	13.0	-132.0	-104364.0	0.0	-0.1854737550020218	0.7593582272529602	0.0	2068.0	2036.0	2560.0	92.0	93.0	88.0	93.0	1517864606628.0
2016-03-31 12:29:30.635	0.0	-0.25	0.0	0.0	7.0	83.0	-81.0	1.0	-85.0	98492.0	531.0	0.0	0.0	0.0	0.0	15.0	-132.0	-104362.0	0.0	-0.2657418847084045	0.1751590371131897	0.0	2052.0	2052.0	2572.0	92.0	91.0	91.0	92.0	1517866611572.0
2016-03-31 12:29:30.640	0.0	-0.25	0.0	0.0	7.0	83.0	-81.0	1.0	-85.0	98486.0	531.0	0.0	0.0	0.0	0.0	22.0	-145.0	-104340.0	0.0	0.0035327973309904337	0.032030463218688965	0.0	2044.0	2036.0	2564.0	98.0	92.0	97.0	95.0	1517869616699.0
2016-03-31 12:29:30.645	0.0	-0.25	0.0	0.0	7.0	83.0	-78.0	14.0	-92.0	98495.0	531.0	0.0	0.0	0.0	0.0	10.0	-149.0	-104321.0	0.0	0.40028345584869385	-0.5921793580055237	0.0	2040.0	2060.0	2576.0	101.0	91.0	98.0	92.0	1517871621582.0
2016-03-31 12:29:30.650	0.0	-0.25	0.0	0.0	7.0	83.0	-78.0	14.0	-92.0	98495.0	531.0	0.0	0.0	0.0	0.0	10.0	-149.0	-104321.0	0.0	0.40028345584869385	-0.5921793580055237	0.0	2040.0	2060.0	2576.0	101.0	91.0	98.0	92.0	1517871621582.0
2016-03-31 12:29:30.655	0.0	-0.25	0.0	0.0	7.0	83.0	-79.5	7.5	-98.5	98498.0	531.0	0.0	0.0	0.0	0.0	-2.5	-139.5	-104339.0	0.0	0.5261804610490799	-0.44480226933956146	0.0	2066.0	2058.0	2562.0	96.5	95.0	95.5	94.5	1517875629287.5
2016-03-31 12:29:30.660	0.0	-0.25	0.0	0.0	7.0	83.0	-81.0	1.0	-105.0	98498.0	531.0	0.0	0.0	0.0	0.0	8.0	-126.0	-104334.0	0.0	0.8896414637565613	-1.2715308666229248	0.0	2072.0	2056.0	2576.0	96.0	94.0	97.0	95.0	1517878636718.0
2016-03-31 12:29:30.665	0.0	-0.25	0.0	0.0	7.0	83.0	-80.0	-2.0	-90.0	98510.0	531.0	0.0	0.0	0.0	0.0	25.0	-119.0	-104319.0	0.0	1.3312394618988037	-1.6116633415222168	0.0	2024.0	2036.0	2560.0	96.0	93.0	98.0	95.0	1517881642120.0
2016-03-31 12:29:30.670	0.0	-0.25	0.0	0.0	7.0	83.0	-80.0	-2.0	-90.0	98513.0	531.0	0.0	0.0	0.0	0.0	22.0	-113.0	-104324.0	0.0	1.756858468055725	-2.191904067993164	0.0	2036.0	2068.0	2580.0	97.0	95.0	96.0	94.0	1517883646850.0
2016-03-31 12:29:30.675	0.0	-0.25	0.0	0.0	7.0	83.0	-75.0	7.0	-89.0	98498.0	531.0	0.0	0.0	0.0	0.0	21.0	-115.0	-104340.0	0.0	1.6087188720703125	-1.7285267114639282	0.0	2084.0	2048.0	2568.0	94.0	97.0	94.0	97.0	1517886651794.0
2016-03-31 12:29:30.680	0.0	-0.25	0.0	0.0	7.0	83.0	-75.0	7.0	-89.0	98492.0	531.0	0.0	0.0	0.0	0.0	20.0	-117.0	-104308.0	0.0	1.2337603569030762	-1.8550825119018557	0.0	2064.0	2036.0	2584.0	97.0	94.0	97.0	94.0	1517888657012.0
2016-03-31 12:29:30.685	0.0	-0.25	0.0	0.0	7.0	83.0	-73.0	13.0	-95.0	98495.0	531.0	0.0	0.0	0.0	0.0	41.0	-119.0	-104304.0	0.0	1.2771495580673218	-1.4145190715789795	0.0	2036.0	2032.0	2572.0	97.0	92.0	99.0	94.0	1517891662017.0
2016-03-31 12:29:30.690	0.0	-0.25	0.0	0.0	7.0	83.0	-73.0	13.0	-95.0	98498.0	531.0	0.0	0.0	0.0	0.0	50.0	-106.0	-104282.0	0.0	1.1854468584060671	-0.9613412022590636	0.0	2028.0	2044.0	2552.0	102.0	96.0	104.0	96.0	1517893666839.0
2016-03-31 12:29:30.695	0.0	-0.25	0.0	0.0	7.0	83.0	-85.0	5.0	-103.0	98495.0	531.0	0.0	0.0	0.0	0.0	35.0	-101.0	-104303.0	0.0	1.1131142377853394	-0.6920503973960876	0.0	2052.0	2060.0	2552.0	101.0	99.0	100.0	98.0	1517896671813.0
2016-03-31 12:29:30.700	0.0	-0.25	0.0	0.0	7.0	83.0	-85.0	5.0	-103.0	98492.0	531.0	0.0	0.0	0.0	0.0	14.0	-113.0	-104316.0	0.0	0.4829363822937012	-0.3095516860485077	0.0	2064.0	2052.0	2556.0	99.0	101.0	96.0	101.0	1517898676910.0
2016-03-31 12:29:30.705	0.0	-0.25	0.0	0.0	7.0	83.0	-75.0	1.0	-91.0	98492.0	531.0	0.0	0.0	0.0	0.0	4.0	-130.0	-104311.0	0.0	0.04636716842651367	-0.6986286640167236	0.0	2052.0	2036.0	2584.0	100.0	100.0	97.0	101.0	1517901682006.0
2016-03-31 12:29:30.710	0.0	-0.25	0.0	0.0	7.0	83.0	-75.0	1.0	-91.0	98495.0	531.0	0.0	0.0	0.0	0.0	19.0	-146.0	-104311.0	0.0	0.10785674303770064	-0.7111992239952087	0.0	2044.0	2036.0	2576.0	99.0	98.0	99.0	102.0	1517903686798.0
2016-03-31 12:29:30.715	0.0	-0.25	0.0	0.0	7.0	83.0	-73.0	3.0	-87.0	98487.5	531.0	0.0	0.0	0.0	0.0	34.0	-123.0	-104310.0	0.0	0.32849790900945663	-0.7234874367713928	0.0	2046.0	2054.0	2568.0	98.5	100.0	100.0	99.5	1517907194503.5
2016-03-31 12:29:30.720	0.0	-0.25	0.0	0.0	7.0	83.0	-73.0	3.0	-87.0	98487.5	531.0	0.0	0.0	0.0	0.0	34.0	-123.0	-104310.0	0.0	0.32849790900945663	-0.7234874367713928	0.0	2046.0	2054.0	2568.0	98.5	100.0	100.0	99.5	1517907194503.5
2016-03-31 12:29:30.725	0.0	-0.25	0.0	0.0	7.0	83.0	-78.0	14.0	-92.0	98498.0	531.0	0.0	0.0	0.0	0.0	23.0	-115.0	-104294.0	0.0	0.18566769361495966	-0.5592032670974731	0.0	2068.0	2040.0	2552.0	101.0	99.0	100.0	98.0	1517910701904.0
2016-03-31 12:29:30.730	0.0	-0.25	0.0	0.0	7.0	83.0	-78.0	14.0	-92.0	98498.0	531.0	0.0	0.0	0.0	0.0	16.0	-132.0	-104268.0	0.0	0.3265516757965088	-0.7808209061622621	0.0	2064.0	2056.0	2572.0	105.0	94.0	102.0	96.0	1517913706878.0
2016-03-31 12:29:30.735	0.0	-0.25	0.0	0.0	7.0	83.0	-76.0	10.0	-102.0	98502.5	531.0	0.0	0.0	0.0	0.0	16.0	-148.5	-104215.5	0.0	0.9742035865783691	-0.9603862762451171	0.0	2042.0	2044.0	2582.0	110.5	92.5	109.0	94.0	1517917214431.0
2016-03-31 12:29:30.740	0.0	-0.25	0.0	0.0	7.0	83.0	-76.0	10.0	-102.0	98502.5	531.0	0.0	0.0	0.0	0.0	16.0	-148.5	-104215.5	0.0	0.9742035865783691	-0.9603862762451171	0.0	2042.0	2044.0	2582.0	110.5	92.5	109.0	94.0	1517917214431.0
2016-03-31 12:29:30.745	0.0	-0.25	0.0	0.0	7.0	83.0	-78.0	2.0	-104.0	98507.0	531.0	0.0	0.0	0.0	0.0	30.0	-134.0	-104196.0	0.0	1.4101812839508057	-0.7897536158561707	0.0	2072.0	2044.0	2568.0	109.0	97.0	111.0	97.0	1517920722351.0
2016-03-31 12:29:30.750	0.0	-0.25	0.0	0.0	7.0	83.0	-78.0	2.0	-104.0	98507.0	531.0	0.0	0.0	0.0	0.0	44.0	-125.0	-104184.0	0.0	1.2455490827560425	-0.7480290532112122	0.0	2068.0	2052.0	2572.0	108.0	97.0	110.0	98.0	1517923727081.0
2016-03-31 12:29:30.755	0.0	-0.25	0.0	0.0	7.0	83.0	-84.0	2.0	-98.0	98504.0	531.0	0.0	0.0	0.0	0.0	51.0	-134.0	-104179.0	0.0	1.199984788894653	-0.41901549696922297	0.0	2028.0	2020.0	2556.0	108.0	98.0	108.0	100.0	1517925732025.0
2016-03-31 12:29:30.760	0.0	-0.25	0.0	0.0	7.0	83.0	-84.0	2.0	-98.0	98504.0	531.0	0.0	0.0	0.0	0.0	33.0	-147.0	-104172.0	0.0	1.0496963262557983	-0.33145806193351746	0.0	2028.0	2056.0	2560.0	109.0	100.0	106.0	100.0	1517927737030.0
2016-03-31 12:29:30.765	0.0	-0.25	0.0	0.0	7.0	83.0	-74.0	6.0	-94.0	98501.0	531.0	0.0	0.0	0.0	0.0	8.0	-156.0	-104197.0	0.0	0.7929418683052063	-0.17945994436740875	0.0	2068.0	2064.0	2576.0	106.0	104.0	102.0	103.0	1517930741912.0
2016-03-31 12:29:30.770	0.0	-0.25	0.0	0.0	7.0	83.0	-74.0	6.0	-94.0	98498.0	531.0	0.0	0.0	0.0	0.0	-7.0	-160.0	-104187.0	0.0	0.4891198873519898	-0.40083047747612	0.0	2064.0	2052.0	2572.0	105.0	103.0	102.0	103.0	1517932747070.0
2016-03-31 12:29:30.775	0.0	-0.25	0.0	0.0	7.0	83.0	-73.0	7.0	-93.0	98513.0	531.0	0.0	0.0	0.0	0.0	15.5	-146.0	-104165.0	0.0	0.23825030028820038	-0.7780592739582062	0.0	2034.0	2036.0	2572.0	105.5	100.0	107.5	101.5	1517936754623.0
2016-03-31 12:29:30.780	0.0	-0.25	0.0	0.0	7.0	83.0	-73.0	7.0	-93.0	98513.0	531.0	0.0	0.0	0.0	0.0	15.5	-146.0	-104165.0	0.0	0.23825030028820038	-0.7780592739582062	0.0	2034.0	2036.0	2572.0	105.5	100.0	107.5	101.5	1517936754623.0
2016-03-31 12:29:30.785	0.0	-0.25	0.0	0.0	7.0	83.0	-71.0	11.0	-97.0	98498.0	531.0	0.0	0.0	0.0	0.0	32.0	-127.0	-104136.0	0.0	0.18332470953464508	-0.8586600422859192	0.0	2056.0	2064.0	2568.0	108.0	98.0	110.0	98.0	1517940762268.0
2016-03-31 12:29:30.790	0.0	-0.25	0.0	0.0	7.0	83.0	-71.0	11.0	-97.0	98492.0	531.0	0.0	0.0	0.0	0.0	21.0	-131.0	-104124.0	0.0	0.14231020212173462	-0.6239597797393799	0.0	2068.0	2052.0	2556.0	114.0	102.0	112.0	102.0	1517942767120.0
2016-03-31 12:29:30.795	0.0	-0.25	0.0	0.0	7.0	83.0	-80.0	10.0	-104.0	98501.0	531.0	0.0	0.0	0.0	0.0	16.0	-134.0	-104095.0	0.0	0.21924081444740293	-0.9438909292221068	0.0	2060.0	2052.0	2568.0	115.0	100.0	114.0	101.0	1517944772033.0
2016-03-31 12:29:30.800	0.0	-0.25	0.0	0.0	7.0	83.0	-80.0	10.0	-104.0	98501.0	531.0	0.0	0.0	0.0	0.0	29.0	-136.0	-104065.0	0.0	0.5650008320808411	-1.0884119272232056	0.0	2048.0	2036.0	2572.0	116.0	98.0	116.0	100.0	1517947777069.0
2016-03-31 12:29:30.805	0.0	-0.25	0.0	0.0	7.0	83.0	-77.0	-1.0	-97.0	98492.0	531.0	0.0	0.0	0.0	0.0	44.0	-123.0	-104031.0	0.0	0.9234002828598022	-1.4165138006210327	0.0	2040.0	2056.0	2572.0	117.0	97.0	118.0	98.0	1517949782073.0
2016-03-31 12:29:30.810	0.0	-0.25	0.0	0.0	7.0	83.0	-77.0	-1.0	-97.0	98501.0	531.0	0.0	0.0	0.0	0.0	48.0	-119.0	-104027.0	0.0	0.9893119335174559	-1.1491320133209229	0.0	2060.0	2040.0	2556.0	116.0	99.0	116.0	99.0	1517952787261.0
2016-03-31 12:29:30.815	0.0	-0.25	0.0	0.0	7.0	83.0	-73.0	3.0	-97.0	98492.0	531.0	0.0	0.0	0.0	0.0	35.5	-140.5	-104003.0	0.0	0.7711082994937897	-0.9635108113288879	0.0	2056.0	2050.0	2580.0	115.5	99.5	113.0	101.5	1517956294753.5
2016-03-31 12:29:30.820	0.0	-0.25	0.0	0.0	7.0	83.0	-73.0	3.0	-97.0	98492.0	531.0	0.0	0.0	0.0	0.0	35.5	-140.5	-104003.0	0.0	0.7711082994937897	-0.9635108113288879	0.0	2056.0	2050.0	2580.0	115.5	99.5	113.0	101.5	1517956294753.5
2016-03-31 12:29:30.825	0.0	-0.25	0.0	0.0	7.0	83.0	-73.0	1.0	-97.0	98495.0	531.0	0.0	0.0	0.0	0.0	39.0	-156.0	-103972.0	0.0	0.7317537665367126	-1.0150613784790041	0.0	2032.0	2044.0	2580.0	116.0	99.0	114.0	101.0	1517959802307.0
2016-03-31 12:29:30.830	0.0	-0.25	0.0	0.0	7.0	83.0	-73.0	1.0	-97.0	98495.0	531.0	0.0	0.0	0.0	0.0	38.0	-145.0	-103972.0	0.0	0.5532997846603394	-1.0329356193542478	0.0	2048.0	2036.0	2556.0	113.0	102.0	114.0	101.0	1517962807312.0
2016-03-31 12:29:30.835	0.0	-0.25	0.0	0.0	7.0	83.0	-77.0	3.0	-91.0	98495.0	531.0	0.0	0.0	0.0	0.0	18.0	-163.0	-103964.0	0.0	0.3297000825405121	-0.7513607740402222	0.0	2068.0	2044.0	2568.0	114.0	102.0	110.0	103.0	1517964812225.0
2016-03-31 12:29:30.840	0.0	-0.25	0.0	0.0	7.0	83.0	-77.0	3.0	-91.0	98498.0	531.0	0.0	0.0	0.0	0.0	-3.0	-182.0	-103952.0	0.0	-0.013556361198425293	-0.6021590828895569	0.0	2040.0	2048.0	2560.0	119.0	106.0	114.0	107.0	1517967817199.0
2016-03-31 12:29:30.845	0.0	-0.25	0.0	0.0	7.0	83.0	-74.0	4.0	-92.0	98498.0	531.0	0.0	0.0	0.0	0.0	-7.5	-187.5	-103915.5	0.0	0.10565369389951229	-0.3412167876958847	0.0	2048.0	2040.0	2566.0	119.0	104.0	118.5	104.5	1517970825225.0
2016-03-31 12:29:30.850	0.0	-0.25	0.0	0.0	7.0	83.0	-74.0	4.0	-92.0	98498.0	531.0	0.0	0.0	0.0	0.0	-7.5	-187.5	-103915.5	0.0	0.10565369389951229	-0.3412167876958847	0.0	2048.0	2040.0	2566.0	119.0	104.0	118.5	104.5	1517970825225.0
2016-03-31 12:29:30.855	0.0	-0.25	0.0	0.0	7.0	83.0	-76.0	2.0	-84.0	98492.0	531.0	0.0	0.0	0.0	0.0	21.0	-158.0	-103894.0	0.0	0.28623440861701965	-0.22401727735996246	0.0	2052.0	2040.0	2580.0	117.0	104.0	121.0	104.0	1517974832336.0
2016-03-31 12:29:30.860	0.0	-0.25	0.0	0.0	7.0	83.0	-74.0	3.0	-87.0	98495.0	531.0	0.0	0.0	0.0	0.0	56.5	-156.0	-103851.5	0.0	0.1376653779298067	-0.3265162259340286	0.0	2052.0	2052.0	2570.0	120.0	101.0	121.5	104.0	1517978339858.5
2016-03-31 12:29:30.865	0.0	-0.25	0.0	0.0	7.0	83.0	-74.0	3.0	-87.0	98495.0	531.0	0.0	0.0	0.0	0.0	56.5	-156.0	-103851.5	0.0	0.1376653779298067	-0.3265162259340286	0.0	2052.0	2052.0	2570.0	120.0	101.0	121.5	104.0	1517978339858.5
2016-03-31 12:29:30.870	0.0	-0.25	0.0	0.0	7.0	83.0	-72.0	4.0	-90.0	98504.0	531.0	0.0	0.0	0.0	0.0	71.0	-149.0	-103803.0	0.0	0.09357281029224396	-0.5683242082595825	0.0	2048.0	2060.0	2580.0	122.0	100.0	123.0	101.0	1517981847320.0
2016-03-31 12:29:30.875	0.0	-0.25	0.0	0.0	7.0	83.0	-75.0	1.0	-95.0	98513.0	531.0	0.0	0.0	0.0	0.0	59.0	-137.0	-103792.0	0.0	-0.06090282276272774	-0.7956287264823914	0.0	2036.0	2040.0	2556.0	122.0	102.0	121.0	101.0	1517984852539.0
2016-03-31 12:29:30.880	0.0	-0.25	0.0	0.0	7.0	83.0	-78.0	4.0	-98.0	98516.0	531.0	0.0	0.0	0.0	0.0	49.0	-147.0	-103796.0	0.0	-0.33174803853034973	-1.1722044944763184	0.0	2052.0	2064.0	2580.0	118.0	105.0	116.5	106.5	1517988359939.0
2016-03-31 12:29:30.885	0.0	-0.25	0.0	0.0	7.0	83.0	-78.0	4.0	-98.0	98516.0	531.0	0.0	0.0	0.0	0.0	49.0	-147.0	-103796.0	0.0	-0.33174803853034973	-1.1722044944763184	0.0	2052.0	2064.0	2580.0	118.0	105.0	116.5	106.5	1517988359939.0
2016-03-31 12:29:30.890	0.0	-0.25	0.0	0.0	7.0	83.0	-81.0	7.0	-101.0	98519.0	531.0	0.0	0.0	0.0	0.0	48.0	-154.0	-103801.0	0.0	-0.5919439792633057	-1.5605275630950928	0.0	2056.0	2056.0	2592.0	119.0	112.0	119.0	113.0	1517991867309.0
2016-03-31 12:29:30.895	0.0	-0.25	0.0	0.0	7.0	83.0	-82.0	4.0	-94.0	98510.0	531.0	0.0	0.0	0.0	0.0	46.0	-141.0	-103809.0	0.0	-0.8509484529495239	-2.0551881790161133	0.0	2036.0	2040.0	2560.0	117.0	114.0	118.0	114.0	1517993872375.0
2016-03-31 12:29:30.900	0.0	-0.25	0.0	0.0	7.0	83.0	-82.0	4.0	-94.0	98504.0	531.0	0.0	0.0	0.0	0.0	20.0	-154.0	-103822.0	0.0	-0.7040850520133972	-2.196530103683472	0.0	2056.0	2044.0	2568.0	118.0	115.0	114.0	115.0	1517996877349.0
2016-03-31 12:29:30.905	0.0	-0.25	0.0	0.0	7.0	83.0	-79.0	9.0	-91.0	98510.0	531.0	0.0	0.0	0.0	0.0	6.0	-197.0	-103838.0	0.0	-0.6010162234306335	-2.595616340637207	0.0	2060.0	2084.0	2576.0	118.0	114.0	111.0	118.0	1517998882507.0
2016-03-31 12:29:30.910	0.0	-0.25	0.0	0.0	7.0	83.0	-79.0	9.0	-91.0	98510.0	531.0	0.0	0.0	0.0	0.0	6.0	-197.0	-103838.0	0.0	-0.6010162234306335	-2.595616340637207	0.0	2060.0	2084.0	2576.0	118.0	114.0	111.0	118.0	1517998882507.0
2016-03-31 12:29:30.915	0.0	-0.25	0.0	0.0	7.0	83.0	-78.0	7.0	-90.0	98504.0	531.0	0.0	0.0	0.0	0.0	4.5	-225.0	-103841.5	0.0	-0.15842412039637566	-2.9048644304275513	0.0	2046.0	2046.0	2578.0	116.0	114.0	114.5	117.0	1518002890121.0
2016-03-31 12:29:30.920	0.0	-0.25	0.0	0.0	7.0	83.0	-77.0	5.0	-89.0	98495.0	531.0	0.0	0.0	0.0	0.0	50.0	-178.0	-103852.0	0.0	-0.02755516394972801	-3.32715392112732	0.0	2036.0	2040.0	2544.0	112.0	116.0	119.0	115.0	1518006897460.0
2016-03-31 12:29:30.925	0.0	-0.25	0.0	0.0	7.0	83.0	-81.0	3.0	-93.0	98501.0	531.0	0.0	0.0	0.0	0.0	84.0	-156.0	-103846.0	0.0	0.16659235954284668	-3.344407796859741	0.0	2072.0	2044.0	2576.0	114.0	113.0	119.0	115.0	1518008902465.0
2016-03-31 12:29:30.930	0.0	-0.25	0.0	0.0	7.0	83.0	-81.0	3.0	-93.0	98501.0	531.0	0.0	0.0	0.0	0.0	83.0	-147.0	-103852.0	0.0	-0.1411375105381012	-2.9649720191955566	0.0	2056.0	2040.0	2556.0	116.0	114.0	117.0	114.0	1518011907501.0
2016-03-31 12:29:30.935	0.0	-0.25	0.0	0.0	7.0	83.0	-75.0	5.0	-97.0	98507.0	531.0	0.0	0.0	0.0	0.0	65.0	-157.0	-103837.0	0.0	0.0026674882974475627	-2.3005475997924805	0.0	2036.0	2048.0	2572.0	120.0	113.0	117.0	113.0	1518013912475.0
2016-03-31 12:29:30.940	0.0	-0.25	0.0	0.0	7.0	83.0	-75.0	5.0	-97.0	98507.0	531.0	0.0	0.0	0.0	0.0	39.0	-166.0	-103843.0	0.0	0.10497865080833436	-2.046386241912842	0.0	2060.0	2048.0	2584.0	124.0	117.0	120.0	117.0	1518016917724.0
2016-03-31 12:29:30.945	0.0	-0.25	0.0	0.0	7.0	83.0	-76.0	4.0	-92.0	98505.5	531.0	0.0	0.0	0.0	0.0	16.0	-210.0	-103851.5	0.0	0.1265416443347931	-1.6561410427093506	0.0	2048.0	2042.0	2560.0	123.0	117.5	118.0	119.5	1518019925216.0
2016-03-31 12:29:30.950	0.0	-0.25	0.0	0.0	7.0	83.0	-76.0	4.0	-92.0	98505.5	531.0	0.0	0.0	0.0	0.0	16.0	-210.0	-103851.5	0.0	0.1265416443347931	-1.6561410427093506	0.0	2048.0	2042.0	2560.0	123.0	117.5	118.0	119.5	1518019925216.0
2016-03-31 12:29:30.955	0.0	-0.25	0.0	0.0	7.0	83.0	-79.0	-1.0	-87.0	98513.0	531.0	0.0	0.0	0.0	0.0	-8.0	-221.0	-103874.0	0.0	-0.038686562329530716	-1.236237645149231	0.0	2060.0	2044.0	2560.0	119.0	121.0	118.0	120.0	1518023932617.0
2016-03-31 12:29:30.960	0.0	-0.25	0.0	0.0	7.0	83.0	-79.0	-1.0	-87.0	98510.0	531.0	0.0	0.0	0.0	0.0	-11.0	-184.0	-103893.0	0.0	0.012669493444263935	-1.0640926361083984	0.0	2056.0	2056.0	2576.0	116.0	124.0	118.0	120.0	1518025937591.0
2016-03-31 12:29:30.965	0.0	-0.25	0.0	0.0	7.0	83.0	-76.0	10.0	-84.0	98513.0	531.0	0.0	0.0	0.0	0.0	-8.0	-122.0	-103913.0	0.0	0.2812258005142212	-0.7702859044075012	0.0	2052.0	2028.0	2536.0	113.0	126.0	119.0	120.0	1518028942840.0
2016-03-31 12:29:30.970	0.0	-0.25	0.0	0.0	7.0	83.0	-76.0	10.0	-84.0	98513.0	531.0	0.0	0.0	0.0	0.0	36.0	-119.0	-103922.0	0.0	0.5705666542053223	-0.7029839158058167	0.0	2056.0	2044.0	2564.0	114.0	120.0	119.0	125.0	1518030947540.0
2016-03-31 12:29:30.975	0.0	-0.25	0.0	0.0	7.0	83.0	-82.0	4.0	-90.0	98505.5	531.0	0.0	0.0	0.0	0.0	50.0	-161.0	-103910.0	0.0	1.0277119278907776	-0.5899240374565125	0.0	2058.0	2050.0	2578.0	121.5	116.5	118.5	121.5	1518034955322.0
2016-03-31 12:29:30.980	0.0	-0.25	0.0	0.0	7.0	83.0	-82.0	4.0	-90.0	98505.5	531.0	0.0	0.0	0.0	0.0	50.0	-161.0	-103910.0	0.0	1.0277119278907776	-0.5899240374565125	0.0	2058.0	2050.0	2578.0	121.5	116.5	118.5	121.5	1518034955322.0
2016-03-31 12:29:30.985	0.0	-0.25	0.0	0.0	7.0	83.0	-80.0	4.0	-96.0	98501.0	531.0	0.0	0.0	0.0	0.0	54.5	-191.5	-103880.5	0.0	1.0201687812805176	-0.437514528632164	0.0	2042.0	2042.0	2560.0	126.5	116.5	125.5	117.5	1518039965224.5
2016-03-31 12:29:30.990	0.0	-0.25	0.0	0.0	7.0	83.0	-80.0	4.0	-96.0	98501.0	531.0	0.0	0.0	0.0	0.0	54.5	-191.5	-103880.5	0.0	1.0201687812805176	-0.437514528632164	0.0	2042.0	2042.0	2560.0	126.5	116.5	125.5	117.5	1518039965224.5
2016-03-31 12:29:30.995	0.0	-0.25	0.0	0.0	7.0	83.0	-76.0	6.0	-92.0	98507.0	531.0	0.0	0.0	0.0	0.0	66.0	-171.0	-103853.0	0.0	0.45449921488761896	-0.40335485339164734	0.0	2056.0	2056.0	2580.0	129.0	116.0	131.0	118.0	1518042972686.0
2016-03-31 12:29:31.000	0.0	-0.25	0.0	0.0	7.0	83.0	-76.0	6.0	-92.0	98504.0	531.0	0.0	0.0	0.0	0.0	32.0	-161.0	-103834.0	0.0	0.20842856168746948	-0.36073237657547	0.0	2044.0	2044.0	2568.0	132.0	118.0	129.0	115.0	1518045977630.0
2016-03-31 12:29:31.005	0.0	-0.25	0.0	0.0	7.0	83.0	-75.0	7.0	-91.0	98507.0	531.0	0.0	0.0	0.0	0.0	17.0	-184.0	-103817.0	0.0	0.05147351324558258	-0.660498321056366	0.0	2056.0	2048.0	2588.0	133.0	115.0	129.0	117.0	1518047982818.0
2016-03-31 12:29:31.010	0.0	-0.25	0.0	0.0	7.0	83.0	-75.0	7.0	-91.0	98507.0	531.0	0.0	0.0	0.0	0.0	17.0	-184.0	-103817.0	0.0	0.05147351324558258	-0.660498321056366	0.0	2056.0	2048.0	2588.0	133.0	115.0	129.0	117.0	1518047982818.0
2016-03-31 12:29:31.015	0.0	-0.25	0.0	0.0	7.0	83.0	-75.0	7.0	-91.0	98507.0	531.0	0.0	0.0	0.0	0.0	4.0	-204.0	-103816.0	0.0	-0.1981033980846405	-1.0905286073684692	0.0	2044.0	2064.0	2576.0	132.0	116.0	128.0	118.0	1518050987823.0
2016-03-31 12:29:31.020	0.0	-0.25	0.0	0.0	7.0	83.0	-78.0	6.0	-88.0	98505.5	531.0	0.0	0.0	0.0	0.0	22.0	-190.0	-103827.5	0.0	-0.011034935712814331	-1.4287357926368713	0.0	2050.0	2042.0	2570.0	125.5	119.5	127.5	121.5	1518054495269.0
2016-03-31 12:29:31.025	0.0	-0.25	0.0	0.0	7.0	83.0	-75.0	7.0	-99.0	98499.5	531.0	0.0	0.0	0.0	0.0	54.0	-153.0	-103894.0	0.0	0.19175351411104202	-1.350071370601654	0.0	2056.0	2040.0	2576.0	117.5	128.0	120.0	128.5	1518594005416.5
2016-03-31 12:29:31.030	0.0	-0.25	0.0	0.0	7.0	83.0	-75.0	7.0	-99.0	98499.5	531.0	0.0	0.0	0.0	0.0	54.0	-153.0	-103894.0	0.0	0.19175351411104202	-1.350071370601654	0.0	2056.0	2040.0	2576.0	117.5	128.0	120.0	128.5	1518594005416.5
2016-03-31 12:29:31.035	0.0	-0.25	0.0	0.0	7.0	83.0	-79.0	3.0	-85.0	98501.0	531.0	0.0	0.0	0.0	0.0	90.0	-130.0	-103968.0	0.0	0.21346916258335116	-0.9384331703186036	0.0	2036.0	2028.0	2552.0	111.0	133.0	116.0	134.0	1518598012756.0
2016-03-31 12:29:31.040	0.0	-0.25	0.0	0.0	7.0	83.0	-76.5	5.5	-86.5	98507.0	531.0	0.0	0.0	0.0	0.0	112.5	-94.5	-104036.5	0.0	-0.27143796533346176	-0.09803452342748642	0.0	2036.0	2048.0	2564.0	112.5	140.5	117.0	140.5	1518601520400.5
2016-03-31 12:29:31.045	0.0	-0.25	0.0	0.0	7.0	83.0	-76.5	5.5	-86.5	98507.0	531.0	0.0	0.0	0.0	0.0	112.5	-94.5	-104036.5	0.0	-0.27143796533346176	-0.09803452342748642	0.0	2036.0	2048.0	2564.0	112.5	140.5	117.0	140.5	1518601520400.5
2016-03-31 12:29:31.050	0.0	-0.25	0.0	0.0	7.0	83.0	-74.0	8.0	-88.0	98513.0	531.0	0.0	0.0	0.0	0.0	92.0	-78.0	-104088.0	0.0	-1.3234740495681765	0.6722553968429565	0.0	2040.0	2040.0	2552.0	116.0	141.0	115.0	139.0	1518605027862.0
2016-03-31 12:29:31.055	0.0	-0.25	0.0	0.0	7.0	83.0	-74.0	8.0	-88.0	98513.0	531.0	0.0	0.0	0.0	0.0	92.0	-78.0	-104088.0	0.0	-1.3234740495681765	0.6722553968429565	0.0	2040.0	2040.0	2552.0	116.0	141.0	115.0	139.0	1518605027862.0
2016-03-31 12:29:31.060	0.0	-0.25	0.0	0.0	7.0	83.0	-81.0	5.0	-93.0	98514.5	531.0	0.0	0.0	0.0	0.0	65.0	-130.5	-104089.0	0.0	-2.7507725954055786	0.6369251310825348	0.0	2028.0	2040.0	2554.0	124.0	132.0	119.0	135.0	1518609035461.0
2016-03-31 12:29:31.065	0.0	-0.25	0.0	0.0	7.0	83.0	-80.0	6.0	-100.0	98513.0	531.0	0.0	0.0	0.0	0.0	17.0	-209.0	-104070.0	0.0	-3.6148912906646733	0.6389701962471008	0.0	2044.0	2048.0	2576.0	132.0	126.0	123.0	130.0	1518613043029.0
2016-03-31 12:29:31.070	0.0	-0.25	0.0	0.0	7.0	83.0	-80.0	6.0	-100.0	98513.0	531.0	0.0	0.0	0.0	0.0	-26.0	-251.0	-104062.0	0.0	-4.0477213859558105	0.3751852214336395	0.0	2052.0	2084.0	2576.0	134.0	125.0	125.0	126.0	1518615048583.0
2016-03-31 12:29:31.075	0.0	-0.25	0.0	0.0	7.0	83.0	-80.0	6.0	-100.0	98513.0	531.0	0.0	0.0	0.0	0.0	-26.0	-251.0	-104062.0	0.0	-4.0477213859558105	0.3751852214336395	0.0	2052.0	2084.0	2576.0	134.0	125.0	125.0	126.0	1518615048583.0
2016-03-31 12:29:31.080	0.0	-0.25	0.0	0.0	7.0	83.0	-78.0	6.0	-94.0	98516.0	531.0	0.0	0.0	0.0	0.0	-68.0	-254.0	-104057.0	0.0	-3.7679347991943364	0.0607825443148613	0.0	2044.0	2024.0	2596.0	133.0	127.0	127.0	124.0	1518617053161.0
2016-03-31 12:29:31.085	0.0	-0.25	0.0	0.0	7.0	83.0	-78.0	6.0	-94.0	98516.0	531.0	0.0	0.0	0.0	0.0	-55.0	-225.0	-104059.0	0.0	-3.3813507556915283	-0.7170164585113525	0.0	2052.0	2028.0	2592.0	128.0	126.0	130.0	126.0	1518620057952.0
2016-03-31 12:29:31.090	0.0	-0.25	0.0	0.0	7.0	83.0	-76.0	12.0	-88.0	98504.0	531.0	0.0	0.0	0.0	0.0	-30.0	-158.0	-104066.0	0.0	-2.4381420612335205	-1.154470920562744	0.0	2068.0	2084.0	2564.0	124.0	129.0	132.0	125.0	1518622062957.0
2016-03-31 12:29:31.095	0.0	-0.25	0.0	0.0	7.0	83.0	-76.0	12.0	-88.0	98501.0	531.0	0.0	0.0	0.0	0.0	34.0	-134.0	-104080.0	0.0	-1.5375404357910156	-1.555304765701294	0.0	2048.0	2048.0	2576.0	127.0	130.0	134.0	135.0	1518625067962.0
2016-03-31 12:29:31.100	0.0	-0.25	0.0	0.0	7.0	83.0	-82.0	6.0	-102.0	98507.0	531.0	0.0	0.0	0.0	0.0	94.5	-134.0	-104114.0	0.0	-0.8060093522071838	-1.806811511516571	0.0	2056.0	2038.0	2564.0	126.0	133.0	129.0	138.0	1518628575439.0
2016-03-31 12:29:31.105	0.0	-0.25	0.0	0.0	7.0	83.0	-72.0	4.0	-90.0	98507.0	531.0	0.0	0.0	0.0	0.0	138.0	-162.0	-104144.0	0.0	-0.9131281971931458	-1.9786672592163088	0.0	2032.0	2080.0	2548.0	126.0	133.0	127.0	140.0	1518632083282.0
2016-03-31 12:29:31.110	0.0	-0.25	0.0	0.0	7.0	83.0	-72.0	4.0	-90.0	98507.0	531.0	0.0	0.0	0.0	0.0	138.0	-162.0	-104144.0	0.0	-0.9131281971931458	-1.9786672592163088	0.0	2032.0	2080.0	2548.0	126.0	133.0	127.0	140.0	1518632083282.0
2016-03-31 12:29:31.115	0.0	-0.25	0.0	0.0	7.0	83.0	-72.0	4.0	-90.0	98510.0	531.0	0.0	0.0	0.0	0.0	111.0	-140.0	-104162.0	0.0	-1.257099747657776	-1.4387454986572266	0.0	2020.0	2016.0	2520.0	126.0	139.0	126.0	135.0	1518634088043.0
2016-03-31 12:29:31.120	0.0	-0.25	0.0	0.0	7.0	83.0	-75.0	1.0	-91.0	98510.0	531.0	0.0	0.0	0.0	0.0	82.0	-164.0	-104170.0	0.0	-2.1148886680603027	-1.04953932762146	0.0	2052.0	2020.0	2536.0	129.0	136.0	125.0	136.0	1518637093048.0
2016-03-31 12:29:31.125	0.0	-0.25	0.0	0.0	7.0	83.0	-75.0	1.0	-91.0	98507.0	531.0	0.0	0.0	0.0	0.0	8.0	-165.0	-104190.0	0.0	-3.0844035148620605	-0.6053910255432129	0.0	2032.0	2088.0	2560.0	130.0	139.0	123.0	133.0	1518640098510.0
2016-03-31 12:29:31.130	0.0	-0.25	0.0	0.0	7.0	83.0	-74.0	6.0	-98.0	98496.5	531.0	0.0	0.0	0.0	0.0	-49.0	-251.5	-104191.0	0.0	-3.8667201995849614	-0.7759608030319214	0.0	2038.0	2052.0	2604.0	133.0	132.0	124.0	136.0	1518643105560.0
2016-03-31 12:29:31.135	0.0	-0.25	0.0	0.0	7.0	83.0	-78.0	4.0	-92.0	98507.0	531.0	0.0	0.0	0.0	0.0	-63.0	-294.0	-104193.0	0.0	-3.737292051315308	-1.4948292970657349	0.0	2048.0	2028.0	2600.0	132.0	132.0	128.0	134.0	1518647113311.0
2016-03-31 12:29:31.140	0.0	-0.25	0.0	0.0	7.0	83.0	-78.0	4.0	-92.0	98507.0	531.0	0.0	0.0	0.0	0.0	-63.0	-294.0	-104193.0	0.0	-3.737292051315308	-1.4948292970657349	0.0	2048.0	2028.0	2600.0	132.0	132.0	128.0	134.0	1518647113311.0
2016-03-31 12:29:31.145	0.0	-0.25	0.0	0.0	7.0	83.0	-78.0	4.0	-92.0	98501.0	531.0	0.0	0.0	0.0	0.0	-48.0	-273.0	-104191.0	0.0	-3.475111722946167	-2.310904026031494	0.0	2048.0	2060.0	2580.0	134.0	135.0	136.0	136.0	1518649118225.0
2016-03-31 12:29:31.150	0.0	-0.25	0.0	0.0	7.0	83.0	-74.0	6.0	-90.0	98486.0	531.0	0.0	0.0	0.0	0.0	-38.0	-176.0	-104204.0	0.0	-2.712489128112793	-2.1834969520568848	0.0	2060.0	2048.0	2576.0	130.0	141.0	139.0	133.0	1518652123321.0
2016-03-31 12:29:31.155	0.0	-0.25	0.0	0.0	7.0	83.0	-74.0	6.0	-90.0	98492.0	531.0	0.0	0.0	0.0	0.0	-9.0	-116.0	-104201.0	0.0	-2.0038189888000493	-2.0389757156372066	0.0	2040.0	2036.0	2576.0	131.0	138.0	138.0	135.0	1518654128173.0
2016-03-31 12:29:31.160	0.0	-0.25	0.0	0.0	7.0	83.0	-79.0	3.0	-89.0	98496.5	531.0	0.0	0.0	0.0	0.0	59.0	-111.0	-104220.5	0.0	-1.3188507556915283	-2.0642353892326355	0.0	2056.0	2054.0	2564.0	131.5	135.0	135.0	140.5	1518658135681.0
2016-03-31 12:29:31.165	0.0	-0.25	0.0	0.0	7.0	83.0	-75.0	5.0	-91.0	98504.0	531.0	0.0	0.0	0.0	0.0	127.0	-174.0	-104236.0	0.0	-1.4282214641571045	-2.1557729244232178	0.0	2028.0	2028.0	2556.0	133.0	133.0	133.0	143.0	1518661143218.0
2016-03-31 12:29:31.170	0.0	-0.25	0.0	0.0	7.0	83.0	-75.0	5.0	-91.0	98504.0	531.0	0.0	0.0	0.0	0.0	127.0	-174.0	-104236.0	0.0	-1.4282214641571045	-2.1557729244232178	0.0	2028.0	2028.0	2556.0	133.0	133.0	133.0	143.0	1518661143218.0
2016-03-31 12:29:31.175	0.0	-0.25	0.0	0.0	7.0	83.0	-75.0	5.0	-91.0	98504.0	531.0	0.0	0.0	0.0	0.0	133.0	-190.0	-104251.0	0.0	-1.7039027214050293	-1.2273321151733398	0.0	2028.0	2028.0	2560.0	132.0	137.0	132.0	141.0	1518664148376.0
2016-03-31 12:29:31.180	0.0	-0.25	0.0	0.0	7.0	83.0	-76.0	4.0	-96.0	98501.0	531.0	0.0	0.0	0.0	0.0	104.0	-195.0	-104273.0	0.0	-2.708686351776123	-0.4685926735401154	0.0	2040.0	2052.0	2532.0	132.0	141.0	129.0	140.0	1518666153228.0
2016-03-31 12:29:31.185	0.0	-0.25	0.0	0.0	7.0	83.0	-76.0	4.0	-96.0	98498.0	531.0	0.0	0.0	0.0	0.0	48.0	-180.0	-104299.0	0.0	-3.3335049152374268	0.26677975058555603	0.0	2068.0	2052.0	2560.0	131.0	145.0	127.0	139.0	1518669158233.0
2016-03-31 12:29:31.190	0.0	-0.25	0.0	0.0	7.0	83.0	-77.0	9.0	-89.0	98498.0	531.0	0.0	0.0	0.0	0.0	7.0	-190.0	-104306.0	0.0	-4.151646137237549	0.5658296942710876	0.0	2000.0	2028.0	2568.0	132.0	142.0	128.0	140.0	1518671163391.0
2016-03-31 12:29:31.195	0.0	-0.25	0.0	0.0	7.0	83.0	-77.0	9.0	-89.0	98498.0	531.0	0.0	0.0	0.0	0.0	-18.0	-215.0	-104328.0	0.0	-4.799557685852051	0.18412108719348907	0.0	2008.0	2044.0	2580.0	136.0	145.0	131.0	146.0	1518674168273.0
2016-03-31 12:29:31.200	0.0	-0.25	0.0	0.0	7.0	83.0	-74.0	6.0	-96.0	98498.0	531.0	0.0	0.0	0.0	0.0	-27.0	-259.0	-104337.0	0.0	-5.256924629211426	0.17536897957324982	0.0	2064.0	2032.0	2568.0	137.0	143.0	131.0	147.0	1518676173217.0
2016-03-31 12:29:31.205	0.0	-0.25	0.0	0.0	7.0	83.0	-74.0	6.0	-96.0	98498.0	531.0	0.0	0.0	0.0	0.0	-44.0	-289.0	-104361.0	0.0	-5.502570152282715	-0.126180499792099	0.0	2060.0	2052.0	2596.0	136.0	144.0	131.0	147.0	1518679178375.0
2016-03-31 12:29:31.210	0.0	-0.25	0.0	0.0	7.0	83.0	-84.0	2.0	-86.0	98504.0	531.0	0.0	0.0	0.0	0.0	-75.0	-294.0	-104380.0	0.0	-5.176772117614746	0.05126887559890747	0.0	1988.0	2032.0	2584.0	135.0	147.0	130.0	145.0	1518681183441.0
2016-03-31 12:29:31.215	0.0	-0.25	0.0	0.0	7.0	83.0	-84.0	2.0	-86.0	98510.0	531.0	0.0	0.0	0.0	0.0	-93.0	-294.0	-104393.0	0.0	-4.7813496589660645	-0.18320132791996	0.0	2040.0	2048.0	2572.0	135.0	146.0	132.0	145.0	1518683188293.0
2016-03-31 12:29:31.220	0.0	-0.25	0.0	0.0	7.0	83.0	-76.0	8.0	-98.0	98516.0	531.0	0.0	0.0	0.0	0.0	-106.0	-298.0	-104411.0	0.0	-3.993943691253662	-0.5107713937759399	0.0	2100.0	2048.0	2580.0	135.0	146.0	131.0	146.0	1518686193298.0
2016-03-31 12:29:31.225	0.0	-0.25	0.0	0.0	7.0	83.0	-76.0	8.0	-98.0	98510.0	531.0	0.0	0.0	0.0	0.0	-88.0	-307.0	-104416.0	0.0	-3.429539442062378	-1.160297989845276	0.0	2028.0	2080.0	2608.0	135.0	143.0	134.0	147.0	1518688198333.0
2016-03-31 12:29:31.230	0.0	-0.25	0.0	0.0	7.0	83.0	-71.0	5.0	-93.0	98498.0	531.0	0.0	0.0	0.0	0.0	-94.0	-263.5	-104430.5	0.0	-2.889600396156311	-2.0913095474243164	0.0	2038.0	2036.0	2562.0	134.5	145.5	135.5	143.0	1518692205932.0
2016-03-31 12:29:31.235	0.0	-0.25	0.0	0.0	7.0	83.0	-79.0	1.0	-91.0	98516.0	531.0	0.0	0.0	0.0	0.0	-107.0	-166.0	-104437.0	0.0	-2.482611179351806	-2.521052837371826	0.0	2100.0	2068.0	2560.0	134.0	147.0	138.0	139.0	1518696213684.0
2016-03-31 12:29:31.240	0.0	-0.25	0.0	0.0	7.0	83.0	-79.0	1.0	-91.0	98516.0	531.0	0.0	0.0	0.0	0.0	-107.0	-166.0	-104437.0	0.0	-2.482611179351806	-2.521052837371826	0.0	2100.0	2068.0	2560.0	134.0	147.0	138.0	139.0	1518696213684.0
2016-03-31 12:29:31.245	0.0	-0.25	0.0	0.0	7.0	83.0	-79.0	1.0	-91.0	98522.0	531.0	0.0	0.0	0.0	0.0	-87.0	-102.0	-104440.0	0.0	-2.21191954612732	-2.29643177986145	0.0	1984.0	2080.0	2576.0	137.0	148.0	144.0	144.0	1518698218383.0
2016-03-31 12:29:31.250	0.0	-0.25	0.0	0.0	7.0	83.0	-76.0	8.0	-88.0	98510.0	531.0	0.0	0.0	0.0	0.0	-46.0	-71.0	-104430.0	0.0	-2.0334718227386475	-2.3188421726226807	0.0	2020.0	2036.0	2568.0	139.0	144.0	146.0	145.0	1518701223449.0
2016-03-31 12:29:31.255	0.0	-0.25	0.0	0.0	7.0	83.0	-76.0	8.0	-88.0	98507.0	531.0	0.0	0.0	0.0	0.0	5.0	-78.0	-104422.0	0.0	-2.0903093814849854	-2.1447649002075195	0.0	2116.0	2036.0	2556.0	142.0	140.0	146.0	146.0	1518703228454.0
2016-03-31 12:29:31.260	0.0	-0.25	0.0	0.0	7.0	83.0	-79.0	7.0	-93.0	98501.0	531.0	0.0	0.0	0.0	0.0	50.0	-121.0	-104408.0	0.0	-2.1074371337890625	-1.877785444259644	0.0	2056.0	2048.0	2568.0	145.0	137.0	145.0	147.0	1518705233459.0
2016-03-31 12:29:31.265	0.0	-0.25	0.0	0.0	7.0	83.0	-79.0	7.0	-93.0	98501.0	531.0	0.0	0.0	0.0	0.0	63.0	-192.0	-104404.0	0.0	-2.456238269805908	-1.24089252948761	0.0	1968.0	2044.0	2564.0	148.0	137.0	142.0	146.0	1518708238433.0
2016-03-31 12:29:31.270	0.0	-0.25	0.0	0.0	7.0	83.0	-80.0	6.0	-88.0	98504.0	531.0	0.0	0.0	0.0	0.0	36.0	-288.0	-104406.0	0.0	-2.740320444107056	-0.5796829462051392	0.0	2052.0	2040.0	2576.0	150.0	139.0	138.0	147.0	1518711243927.0
2016-03-31 12:29:31.275	0.0	-0.25	0.0	0.0	7.0	83.0	-80.0	6.0	-88.0	98504.0	531.0	0.0	0.0	0.0	0.0	-24.0	-377.0	-104398.0	0.0	-3.03653883934021	-0.4350932538509369	0.0	2112.0	2052.0	2568.0	152.0	140.0	136.0	145.0	1518713248718.0
2016-03-31 12:29:31.280	0.0	-0.25	0.0	0.0	7.0	83.0	-75.0	3.0	-93.0	98498.0	531.0	0.0	0.0	0.0	0.0	-76.0	-433.0	-104391.0	0.0	-2.939661026000977	-0.8268851041793823	0.0	2040.0	2040.0	2600.0	151.0	141.0	138.0	143.0	1518715253540.0
2016-03-31 12:29:31.285	0.0	-0.25	0.0	0.0	7.0	83.0	-75.0	3.0	-93.0	98501.0	531.0	0.0	0.0	0.0	0.0	-118.0	-441.0	-104375.0	0.0	-2.7119290828704834	-1.648996114730835	0.0	1976.0	2044.0	2592.0	149.0	142.0	142.0	141.0	1518718258483.0
2016-03-31 12:29:31.290	0.0	-0.25	0.0	0.0	7.0	83.0	-75.0	5.0	-95.0	98498.0	531.0	0.0	0.0	0.0	0.0	-140.0	-405.0	-104368.0	0.0	-2.290034294128418	-2.5156216621398926	0.0	2072.0	2056.0	2568.0	147.0	143.0	145.0	139.0	1518720263610.0
2016-03-31 12:29:31.295	0.0	-0.25	0.0	0.0	7.0	83.0	-75.0	5.0	-95.0	98492.0	531.0	0.0	0.0	0.0	0.0	-178.0	-365.0	-104356.0	0.0	-1.7769562005996704	-3.2839968204498287	0.0	2100.0	2052.0	2556.0	152.0	148.0	149.0	142.0	1518723268463.0
2016-03-31 12:29:31.300	0.0	-0.25	0.0	0.0	7.0	83.0	-78.0	6.0	-84.0	98498.0	531.0	0.0	0.0	0.0	0.0	-206.0	-313.0	-104341.0	0.0	-1.2118840217590332	-4.306661128997804	0.0	2012.0	2076.0	2584.0	151.0	147.0	150.0	141.0	1518725273498.0
2016-03-31 12:29:31.305	0.0	-0.25	0.0	0.0	7.0	83.0	-78.0	6.0	-84.0	98501.0	531.0	0.0	0.0	0.0	0.0	-236.0	-263.0	-104327.0	0.0	-0.6363487243652344	-4.664008140563965	0.0	1996.0	2012.0	2584.0	152.0	147.0	151.0	140.0	1518728278686.0
2016-03-31 12:29:31.310	0.0	-0.25	0.0	0.0	7.0	83.0	-77.0	1.0	-85.0	98501.0	531.0	0.0	0.0	0.0	0.0	-244.0	-216.0	-104315.0	0.0	0.05981333181262016	-4.838366508483887	0.0	2104.0	2048.0	2572.0	151.0	146.0	152.0	141.0	1518730284118.0
2016-03-31 12:29:31.315	0.0	-0.25	0.0	0.0	7.0	83.0	-77.0	1.0	-85.0	98501.0	531.0	0.0	0.0	0.0	0.0	-240.0	-179.0	-104312.0	0.0	0.8054800629615784	-3.922163963317871	0.0	2084.0	2068.0	2548.0	149.0	147.0	151.0	143.0	1518732288726.0
2016-03-31 12:29:31.320	0.0	-0.25	0.0	0.0	7.0	83.0	-77.0	7.0	-85.0	98501.0	531.0	0.0	0.0	0.0	0.0	-247.0	-178.0	-104310.0	0.0	1.1197830438613892	-3.1833798885345463	0.0	1972.0	2064.0	2576.0	151.0	146.0	148.0	145.0	1518735293731.0
2016-03-31 12:29:31.325	0.0	-0.25	0.0	0.0	7.0	83.0	-77.0	7.0	-85.0	98501.0	531.0	0.0	0.0	0.0	0.0	-260.0	-186.0	-104312.0	0.0	1.1827245950698853	-2.305496454238892	0.0	2028.0	2012.0	2576.0	150.0	147.0	147.0	146.0	1518737298675.0
2016-03-31 12:29:31.330	0.0	-0.25	0.0	0.0	7.0	83.0	-80.0	4.0	-88.0	98504.0	531.0	0.0	0.0	0.0	0.0	-291.0	-217.0	-104307.0	0.0	0.9913241863250732	-1.4849282503128052	0.0	2128.0	2036.0	2552.0	152.0	147.0	145.0	146.0	1518740303649.0
2016-03-31 12:29:31.335	0.0	-0.25	0.0	0.0	7.0	83.0	-80.0	4.0	-88.0	98504.0	531.0	0.0	0.0	0.0	0.0	-304.0	-238.0	-104305.0	0.0	1.0499340295791626	-0.9929165244102478	0.0	2052.0	2076.0	2568.0	151.0	147.0	146.0	147.0	1518742309112.0
2016-03-31 12:29:31.340	0.0	-0.25	0.0	0.0	7.0	83.0	-73.0	7.0	-93.0	98504.0	531.0	0.0	0.0	0.0	0.0	-323.0	-252.0	-104304.0	0.0	0.9532849192619324	-0.02978196740150452	0.0	1964.0	2024.0	2584.0	150.0	148.0	146.0	146.0	1518745313873.0
2016-03-31 12:29:31.345	0.0	-0.25	0.0	0.0	7.0	83.0	-73.0	7.0	-93.0	98510.0	531.0	0.0	0.0	0.0	0.0	-342.0	-278.0	-104300.0	0.0	0.9133710265159608	-0.15802104771137238	0.0	2064.0	2040.0	2564.0	156.0	151.0	149.0	151.0	1518747318786.0
2016-03-31 12:29:31.350	0.0	-0.25	0.0	0.0	7.0	83.0	-78.0	6.0	-92.0	98504.0	531.0	0.0	0.0	0.0	0.0	-365.0	-293.0	-104294.0	0.0	0.888106107711792	-0.2298381477594376	0.0	2128.0	2064.0	2552.0	156.0	151.0	149.0	150.0	1518750323913.0
2016-03-31 12:29:31.355	0.0	-0.25	0.0	0.0	7.0	83.0	-78.0	6.0	-92.0	98504.0	531.0	0.0	0.0	0.0	0.0	-375.0	-311.0	-104271.0	0.0	0.8826034069061279	-1.3075505495071411	0.0	2008.0	2064.0	2608.0	158.0	148.0	152.0	149.0	1518752328765.0
2016-03-31 12:29:31.360	0.0	-0.25	0.0	0.0	7.0	83.0	-74.0	2.0	-92.0	98501.0	531.0	0.0	0.0	0.0	0.0	-363.0	-288.0	-104249.0	0.0	0.938151240348816	-1.937083125114441	0.0	1976.0	2008.0	2604.0	156.0	147.0	157.0	146.0	1518754333709.0
2016-03-31 12:29:31.365	0.0	-0.25	0.0	0.0	7.0	83.0	-74.0	2.0	-92.0	98495.0	531.0	0.0	0.0	0.0	0.0	-346.0	-242.0	-104223.0	0.0	1.0658305883407593	-2.343100547790528	0.0	2112.0	2048.0	2564.0	156.0	146.0	160.0	143.0	1518757338775.0
2016-03-31 12:29:31.370	0.0	-0.25	0.0	0.0	7.0	83.0	-80.0	4.0	-90.0	98504.0	531.0	0.0	0.0	0.0	0.0	-325.0	-192.0	-104194.0	0.0	1.4241024255752563	-2.6269211769104004	0.0	2108.0	2088.0	2576.0	157.0	145.0	161.0	142.0	1518759343994.0
2016-03-31 12:29:31.375	0.0	-0.25	0.0	0.0	7.0	83.0	-80.0	4.0	-90.0	98504.0	531.0	0.0	0.0	0.0	0.0	-331.0	-137.0	-104166.0	0.0	1.6166034936904907	-2.686297655105591	0.0	1960.0	2048.0	2620.0	159.0	146.0	162.0	139.0	1518762348754.0
2016-03-31 12:29:31.380	0.0	-0.25	0.0	0.0	7.0	83.0	-75.0	1.0	-93.0	98501.0	531.0	0.0	0.0	0.0	0.0	-349.0	-119.0	-104138.0	0.0	1.712748885154724	-3.07816743850708	0.0	2020.0	2020.0	2592.0	162.0	144.0	160.0	140.0	1518764353881.0
2016-03-31 12:29:31.385	0.0	-0.25	0.0	0.0	7.0	83.0	-75.0	1.0	-93.0	98501.0	531.0	0.0	0.0	0.0	0.0	-369.0	-99.0	-104113.0	0.0	1.7368004322052002	-2.8308682441711426	0.0	2144.0	2056.0	2572.0	162.0	145.0	160.0	140.0	1518767358825.0
2016-03-31 12:29:31.390	0.0	-0.25	0.0	0.0	7.0	83.0	-76.0	6.0	-96.0	98507.0	531.0	0.0	0.0	0.0	0.0	-364.0	-92.0	-104104.0	0.0	1.7702269554138184	-2.701373815536499	0.0	2040.0	2092.0	2592.0	160.0	144.0	159.0	143.0	1518769363983.0
2016-03-31 12:29:31.395	0.0	-0.25	0.0	0.0	7.0	83.0	-76.0	6.0	-96.0	98507.0	531.0	0.0	0.0	0.0	0.0	-341.0	-63.0	-104092.0	0.0	1.6653932332992554	-2.1060566902160645	0.0	1952.0	2032.0	2608.0	160.0	150.0	164.0	148.0	1518772368774.0
2016-03-31 12:29:31.400	0.0	-0.25	0.0	0.0	7.0	83.0	-71.0	5.0	-97.0	98513.0	531.0	0.0	0.0	0.0	0.0	-329.0	-37.0	-104087.0	0.0	1.524155855178833	-1.8394650220870967	0.0	2084.0	2032.0	2576.0	160.0	152.0	162.0	149.0	1518774373992.0
2016-03-31 12:29:31.405	0.0	-0.25	0.0	0.0	7.0	83.0	-71.0	5.0	-97.0	98510.0	531.0	0.0	0.0	0.0	0.0	-322.0	-27.0	-104076.0	0.0	1.531264066696167	-1.5891075134277344	0.0	2120.0	2068.0	2572.0	160.0	152.0	160.0	150.0	1518777378967.0
2016-03-31 12:29:31.410	0.0	-0.25	0.0	0.0	7.0	83.0	-74.0	2.0	-92.0	98504.0	531.0	0.0	0.0	0.0	0.0	-333.0	-22.0	-104059.0	0.0	1.360018968582153	-1.4859871864318848	0.0	1968.0	2064.0	2600.0	162.0	151.0	160.0	149.0	1518779383911.0
2016-03-31 12:29:31.415	0.0	-0.25	0.0	0.0	7.0	83.0	-74.0	2.0	-92.0	98507.0	531.0	0.0	0.0	0.0	0.0	-343.0	-32.0	-104055.0	0.0	1.2004121541976929	-1.28454327583313	0.0	2004.0	2012.0	2604.0	162.0	151.0	158.0	150.0	1518781389007.0
2016-03-31 12:29:31.420	0.0	-0.25	0.0	0.0	7.0	83.0	-76.0	0.0	-88.0	98513.0	531.0	0.0	0.0	0.0	0.0	-362.0	-41.0	-104037.0	0.0	1.013463854789734	-0.9247108101844788	0.0	2128.0	2036.0	2576.0	163.0	151.0	159.0	149.0	1518784393951.0
2016-03-31 12:29:31.425	0.0	-0.25	0.0	0.0	7.0	83.0	-76.0	0.0	-88.0	98516.0	531.0	0.0	0.0	0.0	0.0	-384.0	-68.0	-104032.0	0.0	1.0400246381759644	-0.9883878827095032	0.0	2044.0	2092.0	2576.0	164.0	151.0	157.0	150.0	1518786398925.0
2016-03-31 12:29:31.430	0.0	-0.25	0.0	0.0	7.0	83.0	-78.0	0.0	-88.0	98498.0	531.0	0.0	0.0	0.0	0.0	-411.0	-91.0	-104007.0	0.0	1.0070035457611084	-1.061310648918152	0.0	1960.0	2036.0	2612.0	165.0	150.0	158.0	149.0	1518789404022.0
2016-03-31 12:29:31.435	0.0	-0.25	0.0	0.0	7.0	83.0	-78.0	0.0	-88.0	98492.0	531.0	0.0	0.0	0.0	0.0	-446.0	-132.0	-103982.0	0.0	0.8394846320152283	-1.4344598054885864	0.0	2064.0	2000.0	2572.0	168.0	148.0	158.0	148.0	1518791409271.0
2016-03-31 12:29:31.440	0.0	-0.25	0.0	0.0	7.0	83.0	-78.0	0.0	-88.0	98489.0	531.0	0.0	0.0	0.0	0.0	-473.0	-170.0	-103953.0	0.0	0.9441353678703308	-1.6106882095336914	0.0	2112.0	2076.0	2568.0	169.0	147.0	160.0	147.0	1518794414093.0
2016-03-31 12:29:31.445	0.0	-0.25	0.0	0.0	7.0	83.0	-78.0	0.0	-88.0	98492.0	531.0	0.0	0.0	0.0	0.0	-493.0	-208.0	-103924.0	0.0	0.9460556507110596	-1.9217908382415767	0.0	1984.0	2084.0	2588.0	174.0	149.0	165.0	150.0	1518796418975.0
2016-03-31 12:29:31.450	0.0	-0.25	0.0	0.0	7.0	83.0	-79.0	3.0	-95.0	98489.0	531.0	0.0	0.0	0.0	0.0	-505.0	-228.0	-103906.0	0.0	1.127533197402954	-2.2768962383270264	0.0	2000.0	2008.0	2608.0	172.0	150.0	166.0	150.0	1518799424041.0
2016-03-31 12:29:31.455	0.0	-0.25	0.0	0.0	7.0	83.0	-79.0	3.0	-95.0	98489.0	531.0	0.0	0.0	0.0	0.0	-535.0	-241.0	-103879.0	0.0	1.1710094213485718	-2.6311252117156982	0.0	2100.0	2036.0	2564.0	173.0	151.0	166.0	148.0	1518801429046.0
2016-03-31 12:29:31.460	0.0	-0.25	0.0	0.0	7.0	83.0	-80.0	6.0	-90.0	98504.0	531.0	0.0	0.0	0.0	0.0	-565.0	-251.0	-103866.0	0.0	1.2651792764663696	-3.1682496070861816	0.0	2044.0	2104.0	2572.0	172.0	152.0	165.0	149.0	1518803433959.0
2016-03-31 12:29:31.465	0.0	-0.25	0.0	0.0	7.0	83.0	-80.0	6.0	-90.0	98510.0	531.0	0.0	0.0	0.0	0.0	-610.0	-249.0	-103843.0	0.0	1.306107997894287	-3.5253326892852783	0.0	1980.0	2044.0	2616.0	173.0	153.0	164.0	148.0	1518806439086.0
2016-03-31 12:29:31.470	0.0	-0.25	0.0	0.0	7.0	83.0	-75.0	5.0	-97.0	98495.0	531.0	0.0	0.0	0.0	0.0	-648.0	-251.0	-103832.0	0.0	1.0866254568099976	-3.822465181350708	0.0	2048.0	2012.0	2576.0	172.0	154.0	164.0	149.0	1518809444427.0
2016-03-31 12:29:31.475	0.0	-0.25	0.0	0.0	7.0	83.0	-75.0	5.0	-97.0	98489.0	531.0	0.0	0.0	0.0	0.0	-675.0	-244.0	-103812.0	0.0	1.164174199104309	-3.995125770568848	0.0	2084.0	2088.0	2584.0	171.0	154.0	165.0	149.0	1518811449157.0
2016-03-31 12:29:31.480	0.0	-0.25	0.0	0.0	7.0	83.0	-71.0	5.0	-93.0	98495.0	531.0	0.0	0.0	0.0	0.0	-691.0	-245.0	-103811.0	0.0	1.080814003944397	-4.268704414367677	0.0	2004.0	2096.0	2596.0	169.0	154.0	163.0	152.0	1518813454071.0
2016-03-31 12:29:31.485	0.0	-0.25	0.0	0.0	7.0	83.0	-71.0	5.0	-93.0	98492.0	531.0	0.0	0.0	0.0	0.0	-683.0	-224.0	-103804.0	0.0	1.1981058120727541	-4.539928436279297	0.0	2020.0	2016.0	2616.0	166.0	155.0	164.0	153.0	1518816459136.0
2016-03-31 12:29:31.490	0.0	-0.25	0.0	0.0	7.0	83.0	-73.0	-1.0	-93.0	98507.0	531.0	0.0	0.0	0.0	0.0	-693.0	-210.0	-103800.0	0.0	1.1831283569335938	-4.634441375732422	0.0	2068.0	2040.0	2572.0	166.0	157.0	163.0	153.0	1518818464080.0
2016-03-31 12:29:31.495	0.0	-0.25	0.0	0.0	7.0	83.0	-73.0	-1.0	-93.0	98507.0	531.0	0.0	0.0	0.0	0.0	-689.0	-183.0	-103801.0	0.0	1.1616077423095703	-4.650491237640381	0.0	2032.0	2108.0	2600.0	168.0	162.0	167.0	158.0	1518821469024.0
2016-03-31 12:29:31.500	0.0	-0.25	0.0	0.0	7.0	83.0	-80.0	0.0	-92.0	98510.0	531.0	0.0	0.0	0.0	0.0	-703.0	-162.0	-103791.0	0.0	1.1883927583694458	-4.529305458068848	0.0	2024.0	2052.0	2616.0	169.0	162.0	166.0	157.0	1518823474273.0
2016-03-31 12:29:31.505	0.0	-0.25	0.0	0.0	7.0	83.0	-80.0	0.0	-92.0	98513.0	531.0	0.0	0.0	0.0	0.0	-710.0	-144.0	-103791.0	0.0	0.9303734302520752	-4.430125236511231	0.0	2044.0	2012.0	2592.0	169.0	162.0	166.0	158.0	1518825479187.0
2016-03-31 12:29:31.510	0.0	-0.25	0.0	0.0	7.0	83.0	-83.0	-3.0	-89.0	98516.0	531.0	0.0	0.0	0.0	0.0	-720.0	-129.0	-103767.0	0.0	0.9558530449867249	-4.3154354095458975	0.0	2044.0	2084.0	2600.0	171.0	160.0	168.0	156.0	1518828484344.0
2016-03-31 12:29:31.515	0.0	-0.25	0.0	0.0	7.0	83.0	-83.0	-3.0	-89.0	98516.0	531.0	0.0	0.0	0.0	0.0	-732.0	-129.0	-103751.0	0.0	0.9460158348083496	-4.362889289855957	0.0	2044.0	2092.0	2612.0	173.0	158.0	168.0	155.0	1518830489227.0
2016-03-31 12:29:31.520	0.0	-0.25	0.0	0.0	7.0	83.0	-82.0	-4.0	-96.0	98495.0	531.0	0.0	0.0	0.0	0.0	-728.0	-115.0	-103706.0	0.0	1.0998400449752808	-4.405987739562988	0.0	2044.0	2016.0	2616.0	175.0	155.0	173.0	151.0	1518833494232.0
2016-03-31 12:29:31.525	0.0	-0.25	0.0	0.0	7.0	83.0	-82.0	-4.0	-96.0	98492.0	531.0	0.0	0.0	0.0	0.0	-737.0	-125.0	-103667.0	0.0	1.2897001504898071	-4.4560813903808585	0.0	2032.0	2048.0	2584.0	179.0	152.0	174.0	149.0	1518835499389.0
2016-03-31 12:29:31.530	0.0	-0.25	0.0	0.0	7.0	83.0	-74.0	0.0	-86.0	98498.0	531.0	0.0	0.0	0.0	0.0	-730.0	-130.0	-103636.0	0.0	1.4318838119506836	-4.622558116912842	0.0	2044.0	2108.0	2628.0	179.0	150.0	175.0	149.0	1518838504516.0
2016-03-31 12:29:31.535	0.0	-0.25	0.0	0.0	7.0	83.0	-74.0	0.0	-86.0	98504.0	531.0	0.0	0.0	0.0	0.0	-736.0	-146.0	-103625.0	0.0	1.8126016855239868	-4.8453240394592285	0.0	2068.0	2044.0	2616.0	178.0	152.0	172.0	151.0	1518840509368.0
2016-03-31 12:29:31.540	0.0	-0.25	0.0	0.0	7.0	83.0	-74.0	2.0	-88.0	98492.0	531.0	0.0	0.0	0.0	0.0	-735.0	-151.0	-103618.0	0.0	1.9110445976257324	-5.164610385894775	0.0	2016.0	2024.0	2596.0	175.0	155.0	171.0	153.0	1518843514282.0
