time	State	Battery_level	Magnetometer_x	Magnetometer_y	Magnetometer_z	Pressure	Temperature	Wind_speed	Wind_angle	Wind_compensation:pitch	Wind_compensation:roll	Pitch_y	Roll_x	Yaw_z	Altitude	Velocity_x	Velocity_y	Velocity_z	Acceleration_x	Acceleration_y	Acceleration_z	Motor_1_power	Motor_2_power	Motor_3_power	Motor_4_power	time_board
2020-06-30 07:32:01.350	2.0	61.0	-70.0	-4.0	-93.6	98838.4	399.0	0.0	17.198401260375977	0.0	0.0	-419.3	1291.5	-83765.1	0.0	0.0	0.0	0.0	2076.0	2044.0	2572.0	0.0	0.0	0.0	0.0	350219024.1
2020-06-30 07:32:01.400	2.0	61.0	-69.6	-1.2	-91.2	98842.3	399.0	0.0	17.181257057189942	0.0	0.0	-419.0	1291.6	-83769.2	0.0	0.0	0.0	0.0	2076.0	2044.0	2572.8	0.0	0.0	0.0	0.0	350269158.5
2020-06-30 07:32:01.450	2.0	61.0	-69.8	-3.8	-95.0	98839.3	399.0	0.0	17.163545036315917	0.0	0.0	-418.6	1289.6	-83772.9	0.0	0.0	0.0	0.0	2076.0	2042.0	2574.0	0.0	0.0	0.0	0.0	350319240.8
2020-06-30 07:32:01.500	2.0	61.0	-70.4	-4.0	-96.4	98845.3	399.0	0.0	17.141365242004394	0.0	0.0	-417.2	1280.3	-83776.8	0.0	0.0	0.0	0.0	2076.0	2042.4	2572.0	0.0	0.0	0.0	0.0	350369311.0
2020-06-30 07:32:01.550	2.0	61.0	-70.6	-5.0	-93.0	98843.8	399.0	0.0	17.123768043518066	0.0	0.0	-414.9	1279.4	-83781.5	0.0	0.0	0.0	0.0	2076.0	2043.6	2572.0	0.0	0.0	0.0	0.0	350419317.1
2020-06-30 07:32:01.600	2.0	61.0	-70.0	-4.888888888888889	-94.66666666666667	98841.0	399.0	0.0	17.104834450615776	0.0	0.0	-412.44444444444446	1277.5555555555557	-83786.77777777778	0.0	0.0	0.0	0.0	2076.8888888888887	2044.0	2572.0	0.0	0.0	0.0	0.0	350468583.4444444
2020-06-30 07:32:01.650	2.0	61.0	-72.0	-3.25	-96.25	98843.875	399.0	0.0	17.08622431755066	0.0	0.0	-409.5	1278.5	-83791.125	0.0	0.0	0.0	0.0	2076.0	2044.0	2572.5	0.0	0.0	0.0	0.0	350520679.0
2020-06-30 07:32:01.700	2.0	61.0	-71.0	-4.6	-91.8	98837.8	399.0	0.0	17.070322227478027	0.0	0.0	-407.1	1280.1	-83796.3	0.0	0.0	0.0	0.0	2076.0	2044.0	2572.0	0.0	0.0	0.0	0.0	350569552.0
2020-06-30 07:32:01.750	2.0	61.0	-69.0	-4.6	-95.8	98841.7	399.0	0.0	17.05397300720215	0.0	0.0	-406.0	1281.3	-83800.3	0.0	0.0	0.0	0.0	2076.0	2044.0	2574.4	0.0	0.0	0.0	0.0	350619671.2
2020-06-30 07:32:01.800	2.0	61.0	-70.6	-3.8	-93.8	98845.3	399.0	0.0	17.037693405151366	0.0	0.0	-406.4	1281.7	-83803.0	0.0	0.0	0.0	0.0	2076.0	2044.0	2573.6	0.0	0.0	0.0	0.0	350669686.4
2020-06-30 07:32:01.850	2.0	61.0	-71.0	-1.4	-96.2	98846.5	399.0	0.0	17.021376037597655	0.0	0.0	-406.8	1282.8	-83807.1	0.0	0.0	0.0	0.0	2076.0	2044.0	2572.0	0.0	0.0	0.0	0.0	350719787.0
2020-06-30 07:32:01.900	2.0	61.0	-73.55555555555556	-3.7777777777777777	-95.77777777777777	98841.33333333333	399.0	0.0	17.006171968248154	0.0	0.0	-407.3333333333333	1284.6666666666667	-83811.33333333333	0.0	0.0	0.0	0.0	2076.0	2044.4444444444443	2572.0	0.0	0.0	0.0	0.0	350768530.4444444
2020-06-30 07:32:01.950	2.0	61.0	-73.4	-4.6	-95.0	98844.7	399.0	0.0	16.989432907104494	0.0	0.0	-407.0	1286.9	-83816.5	0.0	0.0	0.0	0.0	2076.0	2044.0	2572.0	0.0	0.0	0.0	0.0	350819988.5
2020-06-30 07:32:02.000	2.0	61.0	-72.2	-3.8	-93.8	98845.0	399.0	0.0	16.973114204406738	0.0	0.0	-406.8	1288.6	-83821.5	0.0	0.0	0.0	0.0	2076.0	2044.0	2572.0	0.0	0.0	0.0	0.0	350869985.4
2020-06-30 07:32:02.050	2.0	61.0	-69.0	-4.6	-91.0	98848.6	399.0	0.0	16.95678653717041	0.0	0.0	-405.4	1289.6	-83825.1	0.0	0.0	0.0	0.0	2076.0	2044.0	2572.0	0.0	0.0	0.0	0.0	350920107.6
2020-06-30 07:32:02.100	2.0	61.0	-70.0	-4.4	-94.0	98845.6	399.0	0.0	16.940553855895995	0.0	0.0	-403.4	1290.0	-83829.0	0.0	0.0	0.0	0.0	2076.0	2044.0	2574.4	0.0	0.0	0.0	0.0	350970189.8
2020-06-30 07:32:02.150	2.0	61.0	-71.4	-4.2	-93.0	98844.1	399.0	0.0	16.922993087768553	0.0	0.0	-401.9	1286.3	-83832.2	0.0	0.0	0.0	0.0	2076.0	2041.2	2572.8	0.0	0.0	0.0	0.0	351020339.4
2020-06-30 07:32:02.200	2.0	61.0	-71.6	-4.0	-95.2	98845.3	399.0	0.0	16.901891136169432	0.0	0.0	-400.5	1279.1	-83835.7	0.0	0.0	0.0	0.0	2076.4	2044.0	2572.0	0.0	0.0	0.0	0.0	351070299.8
2020-06-30 07:32:02.250	2.0	61.0	-70.0	-2.4	-94.8	98846.8	399.0	0.0	16.885609436035157	0.0	0.0	-400.0	1278.7	-83840.0	0.0	0.0	0.0	0.0	2076.0	2044.0	2572.0	0.0	0.0	0.0	0.0	351120425.0
2020-06-30 07:32:02.300	2.0	61.0	-71.6	-3.6	-94.0	98843.5	399.0	0.0	16.86912136077881	0.0	0.0	-397.9	1279.4	-83845.1	0.0	0.0	0.0	0.0	2076.8	2044.0	2572.0	0.0	0.0	0.0	0.0	351170470.7
2020-06-30 07:32:02.350	2.0	61.0	-72.66666666666667	-4.0	-92.66666666666667	98848.0	399.0	0.0	16.85109371609158	0.0	0.0	-395.6666666666667	1280.0	-83849.77777777778	0.0	0.0	0.0	0.0	2076.0	2044.0	2572.8888888888887	0.0	0.0	0.0	0.0	351219207.3333333
2020-06-30 07:32:02.400	2.0	61.0	-72.1	-4.1	-94.3	98848.6	399.0	0.0	16.83459415435791	0.0	0.0	-395.8	1279.0	-83855.6	0.0	0.0	0.0	0.0	2076.0	2044.0	2572.4	0.0	0.0	0.0	0.0	351272149.1
2020-06-30 07:32:02.450	2.0	61.0	-70.66666666666667	-2.2222222222222223	-95.55555555555556	98852.33333333333	399.0	0.0	16.81859482659234	0.0	0.0	-395.55555555555554	1279.4444444444443	-83861.0	0.0	0.0	0.0	0.0	2076.0	2043.5555555555557	2572.4444444444443	0.0	0.0	0.0	0.0	351323292.5555556
2020-06-30 07:32:02.500	2.0	61.0	-69.8	-6.6	-96.2	98853.4	399.0	0.0	16.802117538452148	0.0	0.0	-395.9	1278.1	-83866.6	0.0	0.0	0.0	0.0	2076.0	2043.2	2572.0	0.0	0.0	0.0	0.0	351370809.5
2020-06-30 07:32:02.550	2.0	61.0	-71.6	-5.2	-94.8	98849.2	399.0	0.0	16.785995101928712	0.0	0.0	-395.0	1279.0	-83872.3	0.0	0.0	0.0	0.0	2076.0	2044.0	2574.0	0.0	0.0	0.0	0.0	351420986.5
2020-06-30 07:32:02.600	2.0	61.0	-68.44444444444444	-4.0	-92.88888888888889	98848.0	399.0	0.0	16.770882500542534	0.0	0.0	-394.1111111111111	1280.111111111111	-83876.33333333333	0.0	0.0	0.0	0.0	2076.0	2044.0	2572.8888888888887	0.0	0.0	0.0	0.0	351469563.3333333
2020-06-30 07:32:02.650	2.0	61.0	-69.22222222222223	-3.888888888888889	-95.88888888888889	98849.0	399.0	0.0	16.75543424818251	0.0	0.0	-393.0	1280.888888888889	-83879.66666666667	0.0	0.0	0.0	0.0	2076.0	2044.0	2572.8888888888887	0.0	0.0	0.0	0.0	351519632.6666667
2020-06-30 07:32:02.700	2.0	61.0	-70.88888888888889	-3.3333333333333335	-95.33333333333333	98848.0	399.0	0.0	16.740263409084744	0.0	0.0	-392.1111111111111	1281.7777777777778	-83884.33333333333	0.0	0.0	0.0	0.0	2076.0	2044.0	2572.8888888888887	0.0	0.0	0.0	0.0	351568603.0
2020-06-30 07:32:02.750	2.0	61.0	-71.63636363636364	-3.6363636363636362	-92.72727272727273	98847.72727272728	399.0	0.0	16.724931890314277	0.0	0.0	-389.72727272727275	1280.7272727272727	-83887.72727272728	0.0	0.0	0.0	0.0	2076.0	2044.0	2572.0	0.0	0.0	0.0	0.0	351618665.6363636
2020-06-30 07:32:02.800	2.0	61.0	-68.6	-4.2	-95.4	98848.6	399.0	0.0	16.708858489990234	0.0	0.0	-388.9	1280.5	-83890.5	0.0	0.0	0.0	0.0	2076.0	2044.0	2572.4	0.0	0.0	0.0	0.0	351671264.1
2020-06-30 07:32:02.850	2.0	61.0	-69.66666666666667	-4.111111111111111	-94.11111111111111	98849.66666666667	399.0	0.0	16.69391547309028	0.0	0.0	-388.22222222222223	1281.4444444444443	-83894.77777777778	0.0	0.0	0.0	0.0	2076.0	2044.0	2572.4444444444443	0.0	0.0	0.0	0.0	351719943.1111111
2020-06-30 07:32:02.900	2.0	61.0	-70.0	-4.666666666666667	-93.55555555555556	98849.33333333333	399.0	0.0	16.677717208862305	0.0	0.0	-387.22222222222223	1282.6666666666667	-83900.0	0.0	0.0	0.0	0.0	2076.0	2044.0	2573.777777777778	0.0	0.0	0.0	0.0	351773335.2222222
2020-06-30 07:32:02.950	2.0	61.0	-70.33333333333333	-4.555555555555555	-94.55555555555556	98851.0	399.0	0.0	16.663882361518013	0.0	0.0	-385.6666666666667	1282.2222222222222	-83904.77777777778	0.0	0.0	0.0	0.0	2076.0	2044.0	2572.0	0.0	0.0	0.0	0.0	351818969.2222222
2020-06-30 07:32:03.000	2.0	61.0	-68.7	-5.7	-92.7	98847.1	399.0	0.0	16.64945297241211	0.0	0.0	-386.0	1283.4	-83908.2	0.0	0.0	0.0	0.0	2076.0	2044.0	2572.8	0.0	0.0	0.0	0.0	351866543.1
2020-06-30 07:32:03.050	2.0	61.0	-70.5	-3.7	-93.9	98848.9	399.0	0.0	16.633952713012697	0.0	0.0	-385.9	1283.7	-83911.5	0.0	0.0	0.0	0.0	2076.0	2044.0	2572.0	0.0	0.0	0.0	0.0	351917626.4
2020-06-30 07:32:03.100	2.0	61.0	-72.25	-2.5	-93.25	98845.75	399.0	0.0	16.618800401687622	0.0	0.0	-385.0	1284.0	-83916.375	0.0	0.0	0.0	0.0	2076.0	2044.0	2573.5	0.0	0.0	0.0	0.0	351967940.75
2020-06-30 07:32:03.150	2.0	61.0	-67.0	-5.0	-95.0	98846.5	399.0	0.0	16.60710048675537	0.0	0.0	-383.5	1284.0	-83920.0	0.0	0.0	0.0	0.0	2076.0	2044.0	2576.0	0.0	0.0	0.0	0.0	352006759.5
2020-06-30 07:32:03.200	2.0	61.0	-71.33333333333333	-2.6666666666666665	-94.0	98847.5	399.0	0.0	16.589934984842937	0.0	0.0	-382.1666666666667	1283.3333333333333	-83923.16666666667	0.0	0.0	0.0	0.0	2076.0	2044.0	2572.0	0.0	0.0	0.0	0.0	352064498.3333333
2020-06-30 07:32:03.250	2.0	61.0	-69.22222222222223	-4.333333333333333	-94.77777777777777	98849.33333333333	399.0	0.0	16.573623021443684	0.0	0.0	-380.6666666666667	1283.4444444444443	-83928.11111111111	0.0	0.0	0.0	0.0	2076.0	2044.0	2572.0	0.0	0.0	0.0	0.0	352119001.1111111
2020-06-30 07:32:03.300	2.0	61.0	-71.8	-1.8	-94.4	98851.3	399.0	0.0	16.559256553649902	0.0	0.0	-381.7	1283.7	-83933.0	0.0	0.0	0.0	0.0	2076.0	2044.0	2572.0	0.0	0.0	0.0	0.0	352167034.5
2020-06-30 07:32:03.350	2.0	61.0	-71.27272727272727	-4.0	-98.0	98851.0	399.0	0.0	16.54357285933061	0.0	0.0	-381.3636363636364	1283.7272727272727	-83936.45454545454	0.0	0.0	0.0	0.0	2076.3636363636365	2044.0	2572.0	0.0	0.0	0.0	0.0	352219615.1818182
2020-06-30 07:32:03.400	2.0	61.0	-73.11111111111111	-4.222222222222222	-94.0	98846.66666666667	399.0	0.0	16.52713457743327	0.0	0.0	-379.77777777777777	1284.0	-83941.77777777778	0.0	0.0	0.0	0.0	2076.0	2044.0	2574.222222222222	0.0	0.0	0.0	0.0	352269768.2222222
2020-06-30 07:32:03.450	2.0	61.0	-72.1	-1.5	-95.1	98849.8	399.0	0.0	16.511711502075194	0.0	0.0	-378.7	1284.7	-83948.4	0.0	0.0	0.0	0.0	2076.0	2044.0	2576.0	0.0	0.0	0.0	0.0	352321776.8
2020-06-30 07:32:03.500	2.0	61.0	-69.66666666666667	-2.111111111111111	-93.88888888888889	98845.33333333333	399.0	0.0	16.49755096435547	0.0	0.0	-378.0	1284.6666666666667	-83952.11111111111	0.0	0.0	0.0	0.0	2076.0	2044.0	2572.8888888888887	0.0	0.0	0.0	0.0	352369855.6666667
2020-06-30 07:32:03.550	2.0	61.0	-70.1	-5.3	-94.3	98847.1	399.0	0.0	16.48264980316162	0.0	0.0	-377.7	1286.2	-83956.3	0.0	0.0	0.0	0.0	2076.0	2044.0	2574.0	0.0	0.0	0.0	0.0	352420427.9
2020-06-30 07:32:03.600	2.0	61.0	-71.77777777777777	-3.111111111111111	-93.77777777777777	98844.0	399.22222222222223	0.0	16.46811400519477	0.0	0.0	-377.0	1287.3333333333333	-83960.77777777778	0.0	0.0	0.0	0.0	2076.0	2044.4444444444443	2572.8888888888887	0.0	0.0	0.0	0.0	352470109.2222222
2020-06-30 07:32:03.650	2.0	61.0	-70.36363636363636	-5.090909090909091	-94.54545454545455	98846.09090909091	399.6363636363636	0.0	16.454064282503996	0.0	0.0	-377.0	1288.5454545454545	-83965.63636363637	0.0	0.0	0.0	0.0	2076.0	2044.0	2572.0	0.0	0.0	0.0	0.0	352520099.54545456
2020-06-30 07:32:03.700	2.0	61.0	-70.33333333333333	-5.888888888888889	-92.55555555555556	98852.0	399.3333333333333	0.0	16.43931770324707	0.0	0.0	-376.55555555555554	1288.4444444444443	-83970.0	0.0	0.0	0.0	0.0	2076.0	2044.0	2574.222222222222	0.0	0.0	0.0	0.0	352570152.6666667
2020-06-30 07:32:03.750	2.0	61.0	-72.6	-2.8	-94.2	98848.3	400.0	0.0	16.425759887695314	0.0	0.0	-374.4	1289.6	-83973.5	0.0	0.0	0.0	0.0	2076.0	2044.4	2572.4	0.0	0.0	0.0	0.0	352617748.6
2020-06-30 07:32:03.800	2.0	61.0	-72.0909090909091	-5.0	-93.9090909090909	98848.54545454546	399.90909090909093	0.0	16.410727067427203	0.0	0.0	-374.6363636363636	1291.3636363636363	-83977.09090909091	0.0	0.0	0.0	0.0	2076.0	2044.0	2572.0	0.0	0.0	0.0	0.0	352670387.54545456
2020-06-30 07:32:03.850	2.0	61.0	-67.5	-5.0	-95.0	98845.375	399.875	0.0	16.3967022895813	0.0	0.0	-374.25	1292.875	-83980.25	0.0	0.0	0.0	0.0	2077.0	2044.0	2572.0	0.0	0.0	0.0	0.0	352717937.0
2020-06-30 07:32:03.900	2.0	61.0	-69.5	-4.7	-92.7	98843.8	399.7	0.0	16.37524299621582	0.0	0.0	-369.0	1292.6	-83983.9	0.0	0.0	0.0	0.0	2077.2	2043.6	2572.0	0.0	0.0	0.0	0.0	352766524.7
2020-06-30 07:32:03.950	2.0	61.0	-70.27272727272727	-4.636363636363637	-95.54545454545455	98845.27272727272	399.8181818181818	0.0	16.356469241055574	0.0	0.0	-368.0	1291.0	-83989.09090909091	0.0	0.0	0.0	0.0	2076.0	2044.0	2572.0	0.0	0.0	0.0	0.0	352820581.09090906
2020-06-30 07:32:04.000	2.0	61.0	-73.66666666666667	-5.222222222222222	-95.22222222222223	98845.33333333333	400.0	0.0	16.342183854844833	0.0	0.0	-366.55555555555554	1291.5555555555557	-83993.88888888889	0.0	0.0	0.0	0.0	2076.0	2044.0	2572.0	0.0	0.0	0.0	0.0	352870645.7777778
2020-06-30 07:32:04.050	2.0	61.0	-71.55555555555556	-7.111111111111111	-92.88888888888889	98839.33333333333	400.0	0.0	16.328048282199436	0.0	0.0	-365.6666666666667	1292.6666666666667	-83998.66666666667	0.0	0.0	0.0	0.0	2076.0	2044.0	2572.0	0.0	0.0	0.0	0.0	352920253.7777778
2020-06-30 07:32:04.100	2.0	61.0	-71.66666666666667	-5.0	-93.88888888888889	98842.66666666667	400.0	0.0	16.31420029534234	0.0	0.0	-366.1111111111111	1294.2222222222222	-84002.66666666667	0.0	0.0	0.0	0.0	2076.0	2044.0	2572.0	0.0	0.0	0.0	0.0	352968579.7777778
2020-06-30 07:32:04.150	2.0	61.0	-68.9	-4.1	-95.1	98840.8	400.0	0.0	16.299076271057128	0.0	0.0	-366.5	1293.9	-84007.1	0.0	0.0	0.0	0.0	2076.0	2044.0	2572.0	0.0	0.0	0.0	0.0	353021389.3
2020-06-30 07:32:04.200	2.0	61.0	-69.125	-3.125	-96.125	98842.75	400.0	0.0	16.284523487091064	0.0	0.0	-365.375	1293.0	-84011.875	0.0	0.0	0.0	0.0	2076.0	2044.0	2572.5	0.0	0.0	0.0	0.0	353072852.625
2020-06-30 07:32:04.250	2.0	61.0	-69.11111111111111	-9.11111111111111	-94.22222222222223	98849.33333333333	400.0	0.0	16.271710713704426	0.0	0.0	-366.0	1293.4444444444443	-84014.11111111111	0.0	0.0	0.0	0.0	2076.0	2044.0	2572.0	0.0	0.0	0.0	0.0	353117705.7777778
2020-06-30 07:32:04.300	2.0	61.0	-67.6	-4.2	-95.6	98845.9	400.0	0.0	16.258629417419435	0.0	0.0	-366.3	1296.9	-84017.6	0.0	0.0	0.0	0.0	2076.0	2045.2	2572.0	0.0	0.0	0.0	0.0	353168603.1
2020-06-30 07:32:04.350	2.0	61.0	-70.4	-3.2	-95.0	98843.5	400.0	0.0	16.244977951049805	0.0	0.0	-366.9	1300.8	-84021.3	0.0	0.0	0.0	0.0	2076.0	2044.4	2571.6	0.0	0.0	0.0	0.0	353221728.1
2020-06-30 07:32:04.400	2.0	61.0	-70.75	-3.75	-92.5	98845.0	400.0	0.0	16.233336210250854	0.0	0.0	-369.5	1303.125	-84025.75	0.0	0.0	0.0	0.0	2073.0	2044.0	2572.0	0.0	0.0	0.0	0.0	353273784.25
2020-06-30 07:32:04.450	2.0	61.0	-70.88888888888889	-5.333333333333333	-96.44444444444444	98842.66666666667	400.0	0.0	16.226693047417534	0.0	0.0	-375.8888888888889	1303.3333333333333	-84030.0	0.0	0.0	0.0	0.0	2076.0	2044.0	2573.3333333333335	0.0	0.0	0.0	0.0	353320857.7777778
2020-06-30 07:32:04.500	2.0	61.0	-69.44444444444444	-3.4444444444444446	-95.66666666666667	98848.0	400.0	0.0	16.211869981553818	0.0	0.0	-376.0	1304.0	-84036.11111111111	0.0	0.0	0.0	0.0	2076.0	2044.0	2572.4444444444443	0.0	0.0	0.0	0.0	353371435.6666667
2020-06-30 07:32:04.550	2.0	61.0	-70.3	-2.1	-95.5	98848.3	400.0	0.0	16.197453880310057	0.0	0.0	-375.7	1305.2	-84041.0	0.0	0.0	0.0	0.0	2076.0	2044.0	2570.8	0.0	0.0	0.0	0.0	353420522.5
2020-06-30 07:32:04.600	2.0	61.0	-70.22222222222223	-6.0	-95.77777777777777	98848.33333333333	400.0	0.0	16.18385632832845	0.0	0.0	-376.77777777777777	1304.4444444444443	-84046.11111111111	0.0	0.0	0.0	0.0	2074.6666666666665	2044.0	2572.0	0.0	0.0	0.0	0.0	353471597.7777778
2020-06-30 07:32:04.650	2.0	61.0	-69.22222222222223	-5.0	-96.11111111111111	98850.66666666667	400.0	0.0	16.172890133327908	0.0	0.0	-378.3333333333333	1304.7777777777778	-84052.11111111111	0.0	0.0	0.0	0.0	2076.0	2044.0	2572.0	0.0	0.0	0.0	0.0	353521182.0
2020-06-30 07:32:04.700	2.0	61.0	-72.0	-3.0	-95.75	98848.75	400.0	0.0	16.158260107040405	0.0	0.0	-377.125	1305.125	-84057.0	0.0	0.0	0.0	0.0	2076.0	2044.0	2572.0	0.0	0.0	0.0	0.0	353570552.25
2020-06-30 07:32:04.750	2.0	61.0	-70.3	-4.5	-95.1	98848.6	400.0	0.0	16.143614959716796	0.0	0.0	-376.7	1304.6	-84060.1	0.0	0.0	0.0	0.0	2076.0	2044.4	2572.0	0.0	0.0	0.0	0.0	353620858.3
2020-06-30 07:32:04.800	2.0	61.0	-71.66666666666667	-5.444444444444445	-95.22222222222223	98846.0	400.0	0.0	16.1292298634847	0.0	0.0	-376.0	1307.2222222222222	-84062.88888888889	0.0	0.0	0.0	0.0	2076.0	2044.0	2574.6666666666665	0.0	0.0	0.0	0.0	353671928.7777778
2020-06-30 07:32:04.850	2.0	61.0	-70.63636363636364	-3.727272727272727	-96.0909090909091	98847.18181818182	400.0	0.0	16.114526228471235	0.0	0.0	-376.0	1308.7272727272727	-84066.36363636363	0.0	0.0	0.0	0.0	2076.0	2044.0	2571.6363636363635	0.0	0.0	0.0	0.0	353721998.3636364
2020-06-30 07:32:04.900	2.0	61.0	-72.0	-6.5	-93.5	98846.5	400.0	0.0	16.099220275878906	0.0	0.0	-375.0	1309.0	-84071.125	0.0	0.0	0.0	0.0	2076.5	2044.0	2571.5	0.0	0.0	0.0	0.0	353769553.75
2020-06-30 07:32:04.950	2.0	61.0	-69.16666666666667	-3.1666666666666665	-95.5	98846.5	400.0	0.0	16.084525108337402	0.0	0.0	-373.0833333333333	1308.9166666666667	-84076.33333333333	0.0	0.0	0.0	0.0	2076.0	2045.0	2573.3333333333335	0.0	0.0	0.0	0.0	353819671.1666667
2020-06-30 07:32:05.000	2.0	61.0	-70.0	-6.5	-93.5	98846.125	400.0	0.0	16.070508241653442	0.0	0.0	-371.0	1311.875	-84081.75	0.0	0.0	0.0	0.0	2077.5	2044.0	2572.0	0.0	0.0	0.0	0.0	353870997.875
2020-06-30 07:32:05.050	2.0	61.0	-71.72727272727273	-1.9090909090909092	-94.45454545454545	98845.27272727272	400.0	0.0	16.05196120522239	0.0	0.0	-366.27272727272725	1311.0	-84087.18181818182	0.0	0.0	0.0	0.0	2076.3636363636365	2044.0	2572.0	0.0	0.0	0.0	0.0	353922243.3636364
2020-06-30 07:32:05.100	2.0	61.0	-71.88888888888889	-3.4444444444444446	-94.11111111111111	98844.0	400.0	0.0	16.033416112263996	0.0	0.0	-363.3333333333333	1310.4444444444443	-84092.22222222222	0.0	0.0	0.0	0.0	2076.8888888888887	2044.0	2572.0	0.0	0.0	0.0	0.0	353972431.7777778
2020-06-30 07:32:05.150	2.0	61.0	-71.22222222222223	-3.4444444444444446	-92.33333333333333	98840.33333333333	400.0	0.0	16.019589106241863	0.0	0.0	-363.55555555555554	1309.3333333333333	-84096.44444444444	0.0	0.0	0.0	0.0	2076.0	2044.0	2574.222222222222	0.0	0.0	0.0	0.0	354018506.6666667
2020-06-30 07:32:05.200	2.0	61.0	-69.77777777777777	-5.111111111111111	-92.66666666666667	98840.66666666667	400.0	0.0	15.99781608581543	0.0	0.0	-358.22222222222223	1309.7777777777778	-84102.0	0.0	0.0	0.0	0.0	2078.222222222222	2044.0	2572.0	0.0	0.0	0.0	0.0	354072004.0
2020-06-30 07:32:05.250	2.0	61.0	-72.0	-2.0	-96.8	98843.5	400.0	0.0	15.981273460388184	0.0	0.0	-355.9	1309.3	-84107.0	0.0	0.0	0.0	0.0	2076.4	2044.0	2572.0	0.0	0.0	0.0	0.0	354120113.6
2020-06-30 07:32:05.300	2.0	61.0	-70.3	-1.5	-93.9	98845.0	400.0	0.0	15.962183380126953	0.0	0.0	-350.5	1308.9	-84113.1	0.0	0.0	0.0	0.0	2077.2	2044.0	2572.0	0.0	0.0	0.0	0.0	354170150.3
2020-06-30 07:32:05.350	2.0	61.0	-70.44444444444444	-3.7777777777777777	-90.88888888888889	98844.66666666667	400.0	0.0	15.94697454240587	0.0	0.0	-350.6666666666667	1308.6666666666667	-84117.88888888889	0.0	0.0	0.0	0.0	2076.0	2044.0	2572.0	0.0	0.0	0.0	0.0	354221611.4444444
2020-06-30 07:32:05.400	2.0	61.0	-70.9	-2.5	-94.5	98844.7	400.0	0.0	15.933805847167969	0.0	0.0	-349.7	1307.1	-84121.3	0.0	0.0	0.0	0.0	2076.0	2044.0	2571.6	0.0	0.0	0.0	0.0	354270403.6
2020-06-30 07:32:05.450	2.0	61.0	-71.1	-4.7	-92.9	98845.3	400.0	0.0	15.92034034729004	0.0	0.0	-348.1	1307.0	-84126.1	0.0	0.0	0.0	0.0	2076.0	2044.0	2572.0	0.0	0.0	0.0	0.0	354320428.0
2020-06-30 07:32:05.500	2.0	61.0	-69.55555555555556	-6.666666666666667	-97.55555555555556	98842.33333333333	400.0	0.0	15.904746691385904	0.0	0.0	-345.0	1305.111111111111	-84131.0	0.0	0.0	0.0	0.0	2076.0	2044.0	2572.0	0.0	0.0	0.0	0.0	354372958.3333333
2020-06-30 07:32:05.550	2.0	61.0	-70.77777777777777	-5.222222222222222	-95.88888888888889	98847.66666666667	400.0	0.0	15.89153798421224	0.0	0.0	-346.22222222222223	1304.5555555555557	-84136.66666666667	0.0	0.0	0.0	0.0	2076.0	2044.0	2572.0	0.0	0.0	0.0	0.0	354421901.6666667
2020-06-30 07:32:05.600	2.0	61.0	-73.2	-2.6	-95.8	98844.7	400.0	0.0	15.878532218933106	0.0	0.0	-347.9	1303.2	-84140.0	0.0	0.0	0.0	0.0	2076.0	2044.0	2572.0	0.0	0.0	0.0	0.0	354470632.3
2020-06-30 07:32:05.650	2.0	61.0	-69.4	-3.4	-94.2	98844.4	400.0	0.0	15.865159893035889	0.0	0.0	-348.7	1304.6	-84144.8	0.0	0.0	0.0	0.0	2076.0	2044.0	2572.0	0.0	0.0	0.0	0.0	354520696.5
2020-06-30 07:32:05.700	2.0	61.0	-70.0	-3.142857142857143	-96.0	98843.71428571429	400.0	0.0	15.852621623447963	0.0	0.0	-349.0	1304.0	-84149.42857142857	0.0	0.0	0.0	0.0	2076.0	2044.0	2572.0	0.0	0.0	0.0	0.0	354567578.4285714
2020-06-30 07:32:05.750	2.0	61.0	-69.4	-1.8	-95.4	98841.4	400.0	0.0	15.839806652069091	0.0	0.0	-348.1	1303.0	-84153.5	0.0	0.0	0.0	0.0	2076.0	2044.0	2572.8	0.0	0.0	0.0	0.0	354615875.0
2020-06-30 07:32:05.800	2.0	61.0	-69.27272727272727	-4.363636363636363	-94.72727272727273	98842.54545454546	400.0	0.0	15.825850226662375	0.0	0.0	-347.09090909090907	1302.8181818181818	-84157.36363636363	0.0	0.0	0.0	0.0	2076.0	2044.0	2572.0	0.0	0.0	0.0	0.0	354668459.3636364
2020-06-30 07:32:05.850	2.0	61.0	-73.55555555555556	-2.888888888888889	-93.77777777777777	98838.66666666667	400.0	0.0	15.812009281582302	0.0	0.0	-347.0	1301.6666666666667	-84162.88888888889	0.0	0.0	0.0	0.0	2076.0	2044.0	2572.0	0.0	0.0	0.0	0.0	354720719.4444444
2020-06-30 07:32:05.900	2.0	61.0	-71.125	-2.375	-95.875	98840.5	400.0	0.0	15.798693418502808	0.0	0.0	-347.0	1301.125	-84167.0	0.0	0.0	0.0	0.0	2076.0	2044.0	2572.0	0.0	0.0	0.0	0.0	354771060.5
2020-06-30 07:32:05.950	2.0	61.0	-70.3	-4.1	-94.7	98842.0	400.0	0.0	15.785492610931396	0.0	0.0	-346.6	1300.8	-84170.5	0.0	0.0	0.0	0.0	2076.0	2044.0	2572.4	0.0	0.0	0.0	0.0	354821184.6
2020-06-30 07:32:06.000	2.0	61.0	-70.2	-2.8	-96.0	98838.4	400.0	0.0	15.772427749633788	0.0	0.0	-345.5	1299.6	-84174.1	0.0	0.0	0.0	0.0	2076.0	2044.0	2572.0	0.0	0.0	0.0	0.0	354871245.9
2020-06-30 07:32:06.050	2.0	61.0	-68.8	-2.4	-97.8	98845.6	400.0	0.0	15.759314346313477	0.0	0.0	-344.8	1299.3	-84179.5	0.0	0.0	0.0	0.0	2076.0	2044.0	2572.8	0.0	0.0	0.0	0.0	354921319.0
2020-06-30 07:32:06.100	2.0	61.0	-70.25	-4.0	-96.25	98843.125	400.0	0.0	15.747556805610657	0.0	0.0	-344.875	1299.0	-84184.375	0.0	0.0	0.0	0.0	2076.0	2044.5	2572.0	0.0	0.0	0.0	0.0	354967662.375
2020-06-30 07:32:06.150	2.0	61.0	-68.6	-4.8	-94.6	98843.8	400.0	0.0	15.732525157928468	0.0	0.0	-343.2	1300.1	-84191.5	0.0	0.0	0.0	0.0	2076.4	2043.2	2572.0	0.0	0.0	0.0	0.0	355021441.2
2020-06-30 07:32:06.200	2.0	61.0	-71.0	-0.3333333333333333	-95.0	98843.66666666667	400.0	0.0	15.717340893215603	0.0	0.0	-341.8888888888889	1299.0	-84197.77777777778	0.0	0.0	0.0	0.0	2076.0	2044.0	2572.0	0.0	0.0	0.0	0.0	355074041.8888889
2020-06-30 07:32:06.250	2.0	61.0	-71.5	-4.25	-94.75	98845.375	400.0	0.0	15.705003261566162	0.0	0.0	-342.75	1299.75	-84203.0	0.0	0.0	0.0	0.0	2076.0	2044.0	2572.0	0.0	0.0	0.0	0.0	355121642.5
2020-06-30 07:32:06.300	2.0	61.0	-71.11111111111111	-4.666666666666667	-95.33333333333333	98845.66666666667	400.0	0.0	15.692754745483398	0.0	0.0	-342.77777777777777	1298.888888888889	-84208.33333333333	0.0	0.0	0.0	0.0	2076.0	2044.0	2572.0	0.0	0.0	0.0	0.0	355169168.5555556
2020-06-30 07:32:06.350	2.0	61.0	-71.18181818181819	-3.909090909090909	-95.18181818181819	98844.72727272728	400.1818181818182	0.0	15.679865403608842	0.0	0.0	-343.0	1298.6363636363637	-84214.81818181818	0.0	0.0	0.0	0.0	2076.0	2044.0	2572.7272727272725	0.0	0.0	0.0	0.0	355219276.6363636
2020-06-30 07:32:06.400	2.0	61.0	-69.85714285714286	-3.0	-93.85714285714286	98848.42857142857	400.0	0.0	15.665114266531807	0.0	0.0	-342.85714285714283	1296.7142857142858	-84219.28571428571	0.0	0.0	0.0	0.0	2076.0	2042.857142857143	2573.714285714286	0.0	0.0	0.0	0.0	355272940.0
2020-06-30 07:32:06.450	2.0	61.0	-69.66666666666667	-4.555555555555555	-94.33333333333333	98845.0	400.22222222222223	0.0	15.650605201721191	0.0	0.0	-342.3333333333333	1293.7777777777778	-84223.44444444444	0.0	0.0	0.0	0.0	2076.0	2044.0	2572.0	0.0	0.0	0.0	0.0	355322790.5555556
2020-06-30 07:32:06.500	2.0	61.0	-70.44444444444444	-3.5555555555555554	-97.77777777777777	98846.33333333333	400.44444444444446	0.0	15.638700909084744	0.0	0.0	-342.0	1294.0	-84227.0	0.0	0.0	0.0	0.0	2076.0	2044.0	2572.4444444444443	0.0	0.0	0.0	0.0	355369496.2222222
2020-06-30 07:32:06.550	2.0	61.0	-70.5	-4.1	-94.3	98844.7	400.4	0.0	15.622183418273925	0.0	0.0	-340.2	1294.4	-84231.3	0.0	0.0	0.0	0.0	2078.8	2044.0	2572.0	0.0	0.0	0.0	0.0	355422103.5
2020-06-30 07:32:06.600	2.0	61.0	-71.0	-5.25	-95.75	98839.0	400.0	0.0	15.598974227905273	0.0	0.0	-331.75	1294.75	-84235.625	0.0	0.0	0.0	0.0	2077.0	2044.0	2572.0	0.0	0.0	0.0	0.0	355472171.125
2020-06-30 07:32:06.650	2.0	61.0	-70.0	-4.0	-96.0	98840.5	400.5	0.0	15.586854934692383	0.0	0.0	-331.75	1293.75	-84240.25	0.0	0.0	0.0	0.0	2078.0	2043.0	2572.0	0.0	0.0	0.0	0.0	355516013.5
2020-06-30 07:32:06.700	2.0	61.0	-70.8	-1.8	-95.0	98839.9	400.5	0.0	15.564308547973633	0.0	0.0	-324.4	1291.0	-84244.7	0.0	0.0	0.0	0.0	2076.8	2044.0	2572.4	0.0	0.0	0.0	0.0	355571294.5
2020-06-30 07:32:06.750	2.0	61.0	-69.44444444444444	-4.111111111111111	-93.88888888888889	98840.66666666667	400.44444444444446	0.0	15.551168123881022	0.0	0.0	-323.77777777777777	1289.3333333333333	-84248.77777777778	0.0	0.0	0.0	0.0	2076.0	2044.0	2572.4444444444443	0.0	0.0	0.0	0.0	355623344.8888889
2020-06-30 07:32:06.800	2.0	61.0	-71.22222222222223	-7.0	-93.44444444444444	98842.33333333333	401.0	0.0	15.537583880954319	0.0	0.0	-320.8888888888889	1289.2222222222222	-84255.44444444444	0.0	0.0	0.0	0.0	2078.6666666666665	2044.0	2572.0	0.0	0.0	0.0	0.0	355669992.5555556
2020-06-30 07:32:06.850	2.0	61.0	-70.0	-4.444444444444445	-92.44444444444444	98845.0	401.0	0.0	15.518182966444227	0.0	0.0	-313.77777777777777	1288.4444444444443	-84259.88888888889	0.0	0.0	0.0	0.0	2076.4444444444443	2044.0	2572.0	0.0	0.0	0.0	0.0	355716152.2222222
2020-06-30 07:32:06.900	2.0	61.0	-70.36363636363636	-3.090909090909091	-94.36363636363636	98842.81818181818	401.0	0.0	15.505434209650213	0.0	0.0	-314.27272727272725	1288.8181818181818	-84263.81818181818	0.0	0.0	0.0	0.0	2076.0	2044.0	2572.0	0.0	0.0	0.0	0.0	355770116.1818182
2020-06-30 07:32:06.950	2.0	61.0	-72.1	-2.5	-95.9	98840.5	401.0	0.0	15.495581436157227	0.0	0.0	-314.0	1293.5	-84269.1	0.0	0.0	0.0	0.0	2076.0	2046.0	2573.6	0.0	0.0	0.0	0.0	355822710.6
2020-06-30 07:32:07.000	2.0	61.0	-69.0	-1.8888888888888888	-96.77777777777777	98846.66666666667	401.0	0.0	15.485649638705784	0.0	0.0	-314.0	1296.111111111111	-84272.77777777778	0.0	0.0	0.0	0.0	2076.0	2044.0	2573.3333333333335	0.0	0.0	0.0	0.0	355870320.1111111
2020-06-30 07:32:07.050	2.0	61.0	-70.6	-3.4	-94.6	98840.2	401.0	0.0	15.474561786651611	0.0	0.0	-315.8	1296.1	-84275.9	0.0	0.0	0.0	0.0	2076.0	2044.0	2574.8	0.0	0.0	0.0	0.0	355917882.7
2020-06-30 07:32:07.100	2.0	61.0	-72.0	-2.909090909090909	-94.18181818181819	98836.27272727272	401.0	0.0	15.462297526272861	0.0	0.0	-316.6363636363636	1296.0	-84281.54545454546	0.0	0.0	0.0	0.0	2076.0	2044.0	2572.0	0.0	0.0	0.0	0.0	355970430.72727275
2020-06-30 07:32:07.150	2.0	61.0	-72.7	-4.5	-94.7	98839.6	401.0	0.0	15.450794315338134	0.0	0.0	-315.5	1297.3	-84287.2	0.0	0.0	0.0	0.0	2076.0	2044.8	2573.2	0.0	0.0	0.0	0.0	356023000.6
2020-06-30 07:32:07.200	2.0	61.0	-71.11111111111111	-3.7777777777777777	-95.33333333333333	98840.33333333333	401.0	0.0	15.43991862403022	0.0	0.0	-316.0	1298.5555555555557	-84291.22222222222	0.0	0.0	0.0	0.0	2076.0	2044.0	2572.0	0.0	0.0	0.0	0.0	356072258.2222222
2020-06-30 07:32:07.250	2.0	61.0	-70.0	-2.4	-95.6	98842.6	401.0	0.0	15.42728567123413	0.0	0.0	-314.4	1299.3	-84296.6	0.0	0.0	0.0	0.0	2076.8	2043.2	2572.0	0.0	0.0	0.0	0.0	356123156.4
2020-06-30 07:32:07.300	2.0	61.0	-70.88888888888889	-2.4444444444444446	-95.77777777777777	98840.66666666667	401.0	0.0	15.410862498813206	0.0	0.0	-313.77777777777777	1293.3333333333333	-84302.0	0.0	0.0	0.0	0.0	2075.1111111111113	2042.2222222222222	2572.0	0.0	0.0	0.0	0.0	356170758.8888889
2020-06-30 07:32:07.350	2.0	61.0	-71.9090909090909	-3.909090909090909	-92.63636363636364	98843.09090909091	401.0	0.0	15.400144837119363	0.0	0.0	-316.8181818181818	1290.3636363636363	-84306.36363636363	0.0	0.0	0.0	0.0	2077.4545454545455	2044.0	2572.0	0.0	0.0	0.0	0.0	356220846.8181818
2020-06-30 07:32:07.400	2.0	61.0	-71.22222222222223	-5.0	-92.11111111111111	98841.33333333333	401.0	0.0	15.38345389895969	0.0	0.0	-313.1111111111111	1289.5555555555557	-84310.22222222222	0.0	0.0	0.0	0.0	2076.0	2044.0	2572.0	0.0	0.0	0.0	0.0	356270921.0
2020-06-30 07:32:07.450	2.0	61.0	-73.125	-2.375	-92.375	98840.125	401.0	0.0	15.371909976005554	0.0	0.0	-314.625	1290.0	-84316.625	0.0	0.0	0.0	0.0	2076.0	2044.0	2572.0	0.0	0.0	0.0	0.0	356321593.625
2020-06-30 07:32:07.500	2.0	61.0	-70.33333333333333	-5.222222222222222	-94.77777777777777	98840.66666666667	401.0	0.0	15.360233306884766	0.0	0.0	-315.3333333333333	1290.5555555555557	-84321.0	0.0	0.0	0.0	0.0	2076.0	2044.0	2573.3333333333335	0.0	0.0	0.0	0.0	356372761.4444444
2020-06-30 07:32:07.550	2.0	61.0	-72.25	-6.0	-94.25	98842.75	401.0	0.0	15.348541617393494	0.0	0.0	-316.0	1291.0	-84324.5	0.0	0.0	0.0	0.0	2076.0	2044.0	2572.0	0.0	0.0	0.0	0.0	356423591.125
2020-06-30 07:32:07.600	2.0	61.0	-69.0	-4.555555555555555	-95.44444444444444	98841.0	401.0	0.0	15.336963971455893	0.0	0.0	-316.3333333333333	1292.3333333333333	-84329.0	0.0	0.0	0.0	0.0	2076.4444444444443	2044.0	2572.0	0.0	0.0	0.0	0.0	356471262.2222222
2020-06-30 07:32:07.650	2.0	61.0	-71.36363636363636	-5.545454545454546	-95.0	98842.0	401.0	0.0	15.324531121687455	0.0	0.0	-316.27272727272725	1291.6363636363637	-84334.36363636363	0.0	0.0	0.0	0.0	2076.0	2044.0	2572.0	0.0	0.0	0.0	0.0	356521345.1818182
2020-06-30 07:32:07.700	2.0	61.0	-69.22222222222223	-3.0	-95.44444444444444	98840.0	401.0	0.0	15.31295034620497	0.0	0.0	-318.8888888888889	1291.3333333333333	-84338.55555555556	0.0	0.0	0.0	0.0	2076.0	2044.0	2572.4444444444443	0.0	0.0	0.0	0.0	356571373.3333333
2020-06-30 07:32:07.750	2.0	61.0	-69.81818181818181	-3.272727272727273	-94.54545454545455	98839.27272727272	401.0	0.0	15.301381544633346	0.0	0.0	-320.72727272727275	1291.8181818181818	-84342.63636363637	0.0	0.0	0.0	0.0	2076.0	2044.0	2572.0	0.0	0.0	0.0	0.0	356621462.1818182
2020-06-30 07:32:07.800	2.0	61.0	-70.0	-3.7777777777777777	-93.33333333333333	98839.66666666667	401.0	0.0	15.289400100708008	0.0	0.0	-321.1111111111111	1292.0	-84346.55555555556	0.0	0.0	0.0	0.0	2076.0	2044.0	2572.0	0.0	0.0	0.0	0.0	356673190.1111111
2020-06-30 07:32:07.850	2.0	61.0	-69.7	-4.1	-92.7	98837.2	401.0	0.0	15.273023891448975	0.0	0.0	-318.0	1291.9	-84352.2	0.0	0.0	0.0	0.0	2077.6	2044.0	2572.0	0.0	0.0	0.0	0.0	356724108.3
2020-06-30 07:32:07.900	2.0	61.0	-69.0	-4.75	-94.5	98835.625	401.0	0.0	15.260552287101746	0.0	0.0	-317.5	1291.25	-84356.75	0.0	0.0	0.0	0.0	2076.0	2044.0	2573.0	0.0	0.0	0.0	0.0	356770491.875
2020-06-30 07:32:07.950	2.0	61.0	-70.33333333333333	-2.111111111111111	-91.22222222222223	98840.33333333333	401.0	0.0	15.250069618225098	0.0	0.0	-317.22222222222223	1294.6666666666667	-84360.77777777778	0.0	0.0	0.0	0.0	2076.0	2045.3333333333333	2572.0	0.0	0.0	0.0	0.0	356821759.8888889
2020-06-30 07:32:08.000	2.0	61.0	-68.11111111111111	-2.3333333333333335	-93.22222222222223	98842.33333333333	401.0	0.0	15.240047136942545	0.0	0.0	-316.44444444444446	1297.4444444444443	-84366.77777777778	0.0	0.0	0.0	0.0	2076.0	2044.0	2572.0	0.0	0.0	0.0	0.0	356871883.2222222
2020-06-30 07:32:08.050	2.0	61.0	-72.0	-4.0	-94.4	98839.5	401.0	0.0	15.2290602684021	0.0	0.0	-317.6	1298.6	-84372.0	0.0	0.0	0.0	0.0	2076.0	2044.0	2572.8	0.0	0.0	0.0	0.0	356919414.8
2020-06-30 07:32:08.100	2.0	61.0	-69.125	-2.625	-94.375	98841.625	401.0	0.0	15.217132568359375	0.0	0.0	-320.0	1298.5	-84377.625	0.0	0.0	0.0	0.0	2076.0	2044.0	2572.0	0.0	0.0	0.0	0.0	356970809.375
2020-06-30 07:32:08.150	2.0	61.0	-70.3	-5.3	-94.1	98843.8	401.0	0.0	15.204754257202149	0.0	0.0	-319.6	1298.3	-84383.2	0.0	0.0	0.0	0.0	2076.0	2044.0	2575.2	0.0	0.0	0.0	0.0	357024572.2
2020-06-30 07:32:08.200	2.0	61.0	-68.4	-3.6	-93.8	98837.2	401.0	0.0	15.194165420532226	0.0	0.0	-319.0	1301.1	-84388.3	0.0	0.0	0.0	0.0	2076.0	2044.8	2573.2	0.0	0.0	0.0	0.0	357074746.1
2020-06-30 07:32:08.250	2.0	61.0	-70.88888888888889	-2.2222222222222223	-91.77777777777777	98844.33333333333	401.0	0.0	15.183485137091743	0.0	0.0	-319.3333333333333	1301.5555555555557	-84393.0	0.0	0.0	0.0	0.0	2076.0	2044.0	2574.222222222222	0.0	0.0	0.0	0.0	357122249.5555556
2020-06-30 07:32:08.300	2.0	61.0	-71.2	-4.0	-94.8	98839.0	401.0	0.0	15.173138523101807	0.0	0.0	-318.2	1301.5	-84395.9	0.0	0.0	0.0	0.0	2076.0	2044.8	2572.8	0.0	0.0	0.0	0.0	357169881.7
2020-06-30 07:32:08.350	2.0	61.0	-70.6	-2.2	-93.0	98839.6	401.0	0.0	15.162026405334473	0.0	0.0	-318.2	1301.1	-84400.1	0.0	0.0	0.0	0.0	2076.0	2043.6	2572.0	0.0	0.0	0.0	0.0	357219875.5
2020-06-30 07:32:08.400	2.0	61.0	-71.8	-4.2	-93.8	98836.6	401.0	0.0	15.150419521331788	0.0	0.0	-318.9	1300.8	-84404.4	0.0	0.0	0.0	0.0	2076.0	2044.8	2571.2	0.0	0.0	0.0	0.0	357269967.1
2020-06-30 07:32:08.450	2.0	61.0	-67.66666666666667	-3.0	-96.11111111111111	98842.0	401.0	0.0	15.142109658983019	0.0	0.0	-320.8888888888889	1303.0	-84409.66666666667	0.0	0.0	0.0	0.0	2075.1111111111113	2044.0	2572.0	0.0	0.0	0.0	0.0	357320847.7777778
2020-06-30 07:32:08.500	2.0	61.0	-68.54545454545455	-6.181818181818182	-92.0	98840.63636363637	401.0	0.0	15.132370602000844	0.0	0.0	-322.72727272727275	1303.6363636363637	-84415.72727272728	0.0	0.0	0.0	0.0	2076.0	2044.0	2569.818181818182	0.0	0.0	0.0	0.0	357372674.54545456
2020-06-30 07:32:08.550	2.0	61.0	-70.22222222222223	-2.888888888888889	-92.66666666666667	98841.66666666667	401.0	0.0	15.120616912841797	0.0	0.0	-323.22222222222223	1304.2222222222222	-84421.33333333333	0.0	0.0	0.0	0.0	2076.0	2044.0	2572.8888888888887	0.0	0.0	0.0	0.0	357422735.7777778
2020-06-30 07:32:08.600	2.0	61.0	-71.0	-5.4	-93.8	98838.9	401.0	0.0	15.109582233428956	0.0	0.0	-323.6	1302.3	-84425.5	0.0	0.0	0.0	0.0	2076.0	2044.0	2572.4	0.0	0.0	0.0	0.0	357470422.0
2020-06-30 07:32:08.650	2.0	61.0	-74.2	-4.6	-92.2	98838.7	401.0	0.0	15.09789161682129	0.0	0.0	-323.6	1301.5	-84431.3	0.0	0.0	0.0	0.0	2076.0	2044.0	2572.0	0.0	0.0	0.0	0.0	357520394.4
2020-06-30 07:32:08.700	2.0	61.0	-68.8	-2.0	-93.6	98839.3	401.0	0.0	15.086183071136475	0.0	0.0	-324.8	1301.3	-84435.8	0.0	0.0	0.0	0.0	2076.0	2044.0	2572.0	0.0	0.0	0.0	0.0	357570428.0
2020-06-30 07:32:08.750	2.0	61.0	-67.8	-3.0	-92.2	98838.7	401.0	0.0	15.074604511260986	0.0	0.0	-324.0	1299.8	-84440.9	0.0	0.0	0.0	0.0	2076.0	2044.0	2572.4	0.0	0.0	0.0	0.0	357620531.6
2020-06-30 07:32:08.800	2.0	61.0	-70.55555555555556	-2.5555555555555554	-92.33333333333333	98835.66666666667	401.0	0.0	15.061868773566353	0.0	0.0	-321.8888888888889	1299.0	-84445.77777777778	0.0	0.0	0.0	0.0	2076.0	2044.0	2573.3333333333335	0.0	0.0	0.0	0.0	357671430.2222222
2020-06-30 07:32:08.850	2.0	61.0	-70.55555555555556	-5.0	-95.22222222222223	98834.0	401.0	0.0	15.050486988491482	0.0	0.0	-321.3333333333333	1299.4444444444443	-84448.88888888889	0.0	0.0	0.0	0.0	2076.0	2044.0	2573.777777777778	0.0	0.0	0.0	0.0	357718152.8888889
2020-06-30 07:32:08.900	2.0	61.0	-70.63636363636364	-3.5454545454545454	-93.72727272727273	98838.54545454546	401.0	0.0	15.038910605690695	0.0	0.0	-322.8181818181818	1300.0	-84454.63636363637	0.0	0.0	0.0	0.0	2076.0	2044.0	2572.0	0.0	0.0	0.0	0.0	357768263.0
2020-06-30 07:32:08.950	2.0	61.0	-71.0	-3.8	-91.8	98834.8	401.0	0.0	15.026913261413574	0.0	0.0	-322.1	1299.1	-84459.7	0.0	0.0	0.0	0.0	2076.0	2044.0	2572.0	0.0	0.0	0.0	0.0	357820968.2
2020-06-30 07:32:09.000	2.0	61.0	-70.4	-3.2	-94.0	98837.9	401.0	0.0	15.015300846099853	0.0	0.0	-322.7	1299.9	-84464.7	0.0	0.0	0.0	0.0	2076.0	2044.0	2572.4	0.0	0.0	0.0	0.0	357870916.2
2020-06-30 07:32:09.050	2.0	61.0	-67.55555555555556	-4.222222222222222	-92.22222222222223	98839.33333333333	401.0	0.0	15.003788312276205	0.0	0.0	-320.55555555555554	1299.4444444444443	-84469.0	0.0	0.0	0.0	0.0	2076.0	2044.0	2572.8888888888887	0.0	0.0	0.0	0.0	357921850.7777778
2020-06-30 07:32:09.100	2.0	61.0	-69.33333333333333	-2.0	-93.33333333333333	98834.0	401.0	0.0	14.992347187466091	0.0	0.0	-319.44444444444446	1300.4444444444443	-84473.88888888889	0.0	0.0	0.0	0.0	2076.0	2044.0	2572.0	0.0	0.0	0.0	0.0	357971899.5555556
2020-06-30 07:32:09.150	2.0	61.0	-70.0	-3.6	-94.0	98837.1	401.0	0.0	14.981066417694091	0.0	0.0	-320.6	1299.7	-84480.4	0.0	0.0	0.0	0.0	2076.0	2044.0	2572.0	0.0	0.0	0.0	0.0	358021181.7
2020-06-30 07:32:09.200	2.0	61.0	-71.88888888888889	-3.6666666666666665	-93.44444444444444	98835.66666666667	401.0	0.0	14.976307233174643	0.0	0.0	-324.6666666666667	1298.0	-84485.33333333333	0.0	0.0	0.0	0.0	2072.4444444444443	2044.0	2572.0	0.0	0.0	0.0	0.0	358072058.3333333
2020-06-30 07:32:09.250	2.0	61.0	-71.6	-4.0	-90.8	98840.7	401.0	0.0	14.972350978851319	0.0	0.0	-331.1	1298.5	-84489.9	0.0	0.0	0.0	0.0	2076.0	2044.0	2572.8	0.0	0.0	0.0	0.0	358121398.4
2020-06-30 07:32:09.300	2.0	61.0	-70.22222222222223	-5.111111111111111	-92.66666666666667	98837.33333333333	401.0	0.0	14.960424529181587	0.0	0.0	-332.1111111111111	1297.888888888889	-84494.66666666667	0.0	0.0	0.0	0.0	2076.0	2044.0	2572.8888888888887	0.0	0.0	0.0	0.0	358172220.3333333
2020-06-30 07:32:09.350	2.0	61.0	-69.55555555555556	-2.888888888888889	-96.44444444444444	98838.44444444444	401.0	0.0	14.949500719706217	0.0	0.0	-333.0	1297.7777777777778	-84499.44444444444	0.0	0.0	0.0	0.0	2076.0	2044.0	2572.0	0.0	0.0	0.0	0.0	358218990.1111111
2020-06-30 07:32:09.400	2.0	61.0	-70.8	-2.8	-92.6	98840.7	401.0	0.0	14.938299942016602	0.0	0.0	-333.5	1298.0	-84503.1	0.0	0.0	0.0	0.0	2076.0	2044.0	2572.0	0.0	0.0	0.0	0.0	358266585.8
2020-06-30 07:32:09.450	2.0	61.0	-72.2	-5.2	-93.4	98838.3	401.0	0.0	14.926197624206543	0.0	0.0	-333.6	1298.5	-84506.8	0.0	0.0	0.0	0.0	2076.0	2044.0	2574.8	0.0	0.0	0.0	0.0	358318151.2
2020-06-30 07:32:09.500	2.0	61.0	-66.57142857142857	-5.142857142857143	-90.85714285714286	98836.85714285714	401.2857142857143	0.0	14.913245337350029	0.0	0.0	-333.0	1298.857142857143	-84511.0	0.0	0.0	0.0	0.0	2076.0	2044.0	2572.0	0.0	0.0	0.0	0.0	358373508.4285714
2020-06-30 07:32:09.550	2.0	61.0	-68.0	-4.8	-95.6	98837.6	401.2	0.0	14.901921939849853	0.0	0.0	-333.1	1298.4	-84514.8	0.0	0.0	0.0	0.0	2076.0	2044.0	2572.8	0.0	0.0	0.0	0.0	358421825.6
2020-06-30 07:32:09.600	2.0	61.0	-70.0	-4.222222222222222	-92.0	98835.44444444444	401.22222222222223	0.0	14.892528745863173	0.0	0.0	-334.55555555555554	1297.888888888889	-84519.22222222222	0.0	0.0	0.0	0.0	2075.1111111111113	2044.0	2572.4444444444443	0.0	0.0	0.0	0.0	358471116.5555556
2020-06-30 07:32:09.650	2.0	61.0	-69.22222222222223	-4.333333333333333	-97.0	98837.11111111111	401.55555555555554	0.0	14.881929715474447	0.0	0.0	-333.77777777777777	1296.3333333333333	-84523.33333333333	0.0	0.0	0.0	0.0	2076.0	2044.0	2574.6666666666665	0.0	0.0	0.0	0.0	358521138.2222222
2020-06-30 07:32:09.700	2.0	61.0	-68.8	-3.6	-94.0	98838.0	401.3	0.0	14.870088863372803	0.0	0.0	-331.8	1295.3	-84527.8	0.0	0.0	0.0	0.0	2076.0	2044.0	2572.8	0.0	0.0	0.0	0.0	358572030.1
2020-06-30 07:32:09.750	2.0	61.0	-70.4	-4.4	-95.6	98835.7	402.0	0.0	14.858535194396973	0.0	0.0	-330.9	1294.5	-84532.1	0.0	0.0	0.0	0.0	2076.0	2044.0	2573.6	0.0	0.0	0.0	0.0	358622109.5
2020-06-30 07:32:09.800	2.0	61.0	-68.8	-2.8	-95.2	98838.4	402.0	0.0	14.847024154663085	0.0	0.0	-329.3	1294.8	-84536.1	0.0	0.0	0.0	0.0	2076.0	2044.0	2572.0	0.0	0.0	0.0	0.0	358672249.7
2020-06-30 07:32:09.850	2.0	61.0	-71.88888888888889	-1.8888888888888888	-92.33333333333333	98842.0	402.0	0.0	14.836123042636448	0.0	0.0	-329.0	1294.5555555555557	-84539.55555555556	0.0	0.0	0.0	0.0	2076.0	2044.0	2572.4444444444443	0.0	0.0	0.0	0.0	358719794.0
2020-06-30 07:32:09.900	2.0	61.0	-68.63636363636364	-3.727272727272727	-93.36363636363636	98840.45454545454	402.0	0.0	14.82536758076061	0.0	0.0	-329.90909090909093	1293.8181818181818	-84543.27272727272	0.0	0.0	0.0	0.0	2075.6363636363635	2044.0	2572.3636363636365	0.0	0.0	0.0	0.0	358769860.90909094
2020-06-30 07:32:09.950	2.0	61.0	-68.6	-3.8	-94.2	98839.3	402.0	0.0	14.814133548736573	0.0	0.0	-332.0	1292.6	-84548.7	0.0	0.0	0.0	0.0	2076.0	2044.0	2572.0	0.0	0.0	0.0	0.0	358822439.0
2020-06-30 07:32:10.000	2.0	61.0	-71.2	-4.0	-92.4	98837.9	402.0	0.0	14.802769756317138	0.0	0.0	-329.9	1292.7	-84552.5	0.0	0.0	0.0	0.0	2076.0	2044.0	2572.0	0.0	0.0	0.0	0.0	358872527.6
2020-06-30 07:32:10.050	2.0	61.0	-70.8	-2.4	-92.8	98839.9	402.0	0.0	14.791361618041993	0.0	0.0	-330.2	1291.8	-84556.3	0.0	0.0	0.0	0.0	2076.0	2044.0	2572.0	0.0	0.0	0.0	0.0	358922588.5
2020-06-30 07:32:10.100	2.0	61.0	-70.55555555555556	-1.8888888888888888	-95.0	98840.11111111111	402.0	0.0	14.780503061082628	0.0	0.0	-330.0	1291.5555555555557	-84560.33333333333	0.0	0.0	0.0	0.0	2076.0	2044.0	2572.0	0.0	0.0	0.0	0.0	358970166.7777778
2020-06-30 07:32:10.150	2.0	61.0	-68.88888888888889	-2.4444444444444446	-94.22222222222223	98836.33333333333	402.0	0.0	14.769176801045736	0.0	0.0	-329.6666666666667	1290.7777777777778	-84565.66666666667	0.0	0.0	0.0	0.0	2076.0	2044.0	2572.0	0.0	0.0	0.0	0.0	359020202.1111111
2020-06-30 07:32:10.200	2.0	61.0	-70.9	-4.9	-96.3	98837.7	402.0	0.0	14.758423805236816	0.0	0.0	-329.2	1289.8	-84569.5	0.0	0.0	0.0	0.0	2076.0	2044.0	2572.0	0.0	0.0	0.0	0.0	359067824.8
2020-06-30 07:32:10.250	2.0	61.0	-70.8	-1.6	-95.4	98839.5	402.0	0.0	14.747986888885498	0.0	0.0	-330.7	1289.0	-84575.4	0.0	0.0	0.0	0.0	2075.6	2044.0	2572.0	0.0	0.0	0.0	0.0	359117977.4
2020-06-30 07:32:10.300	2.0	61.0	-69.6	-4.4	-93.6	98841.4	402.0	0.0	14.737340545654297	0.0	0.0	-330.8	1289.7	-84581.2	0.0	0.0	0.0	0.0	2076.0	2044.0	2574.8	0.0	0.0	0.0	0.0	359167974.4
2020-06-30 07:32:10.350	2.0	61.0	-69.18181818181819	-2.4545454545454546	-92.81818181818181	98839.90909090909	402.0	0.0	14.725475397976963	0.0	0.0	-330.45454545454544	1290.0	-84586.72727272728	0.0	0.0	0.0	0.0	2076.0	2044.0	2576.0	0.0	0.0	0.0	0.0	359220541.6363636
2020-06-30 07:32:10.400	2.0	61.0	-73.0	-3.8	-92.2	98835.6	402.0	0.0	14.71370038986206	0.0	0.0	-330.6	1288.1	-84590.8	0.0	0.0	0.0	0.0	2076.0	2044.0	2573.2	0.0	0.0	0.0	0.0	359273165.5
2020-06-30 07:32:10.450	2.0	61.0	-69.44444444444444	-1.4444444444444444	-94.77777777777777	98838.0	402.0	0.0	14.70300981733534	0.0	0.0	-330.1111111111111	1287.888888888889	-84594.88888888889	0.0	0.0	0.0	0.0	2076.0	2044.0	2572.8888888888887	0.0	0.0	0.0	0.0	359320729.1111111
2020-06-30 07:32:10.500	2.0	61.0	-69.88888888888889	-2.3333333333333335	-93.44444444444444	98834.66666666667	402.0	0.0	14.69173706902398	0.0	0.0	-330.3333333333333	1286.6666666666667	-84600.11111111111	0.0	0.0	0.0	0.0	2076.0	2044.0	2572.0	0.0	0.0	0.0	0.0	359370815.2222222
2020-06-30 07:32:10.550	2.0	61.0	-69.44444444444444	-5.222222222222222	-94.33333333333333	98835.66666666667	402.0	0.0	14.679499838087294	0.0	0.0	-330.6666666666667	1284.111111111111	-84605.22222222222	0.0	0.0	0.0	0.0	2076.0	2044.0	2572.0	0.0	0.0	0.0	0.0	359425872.3333333
2020-06-30 07:32:10.600	2.0	61.0	-70.77777777777777	-2.5555555555555554	-94.55555555555556	98840.0	402.0	0.0	14.670216136508518	0.0	0.0	-330.6666666666667	1284.888888888889	-84608.88888888889	0.0	0.0	0.0	0.0	2074.6666666666665	2044.0	2572.0	0.0	0.0	0.0	0.0	359470970.5555556
2020-06-30 07:32:10.650	2.0	61.0	-71.5	-3.3	-94.9	98836.2	402.0	0.0	14.663488960266113	0.0	0.0	-334.8	1284.5	-84613.1	0.0	0.0	0.0	0.0	2076.0	2044.0	2572.0	0.0	0.0	0.0	0.0	359518596.9
2020-06-30 07:32:10.700	2.0	61.0	-70.42857142857143	-2.4285714285714284	-94.14285714285714	98838.0	402.0	0.0	14.652330807277135	0.0	0.0	-335.85714285714283	1283.5714285714287	-84618.57142857143	0.0	0.0	0.0	0.0	2076.0	2044.0	2572.0	0.0	0.0	0.0	0.0	359567513.0
2020-06-30 07:32:10.750	2.0	61.0	-70.0	-3.3333333333333335	-93.55555555555556	98841.33333333333	402.0	0.0	14.640290684170193	0.0	0.0	-335.1111111111111	1282.4444444444443	-84623.44444444444	0.0	0.0	0.0	0.0	2076.0	2044.0	2572.0	0.0	0.0	0.0	0.0	359621157.5555556
2020-06-30 07:32:10.800	2.0	61.0	-68.6	-5.0	-92.2	98837.8	402.0	0.0	14.628490447998047	0.0	0.0	-334.7	1281.9	-84627.8	0.0	0.0	0.0	0.0	2076.0	2044.0	2574.8	0.0	0.0	0.0	0.0	359673784.9
2020-06-30 07:32:10.850	2.0	61.0	-70.2	-0.6	-94.2	98833.2	402.0	0.0	14.617800998687745	0.0	0.0	-334.8	1281.0	-84631.2	0.0	0.0	0.0	0.0	2076.0	2044.4	2575.2	0.0	0.0	0.0	0.0	359723891.6
2020-06-30 07:32:10.900	2.0	61.0	-68.77777777777777	-5.0	-96.11111111111111	98830.44444444444	402.0	0.0	14.607386589050293	0.0	0.0	-336.22222222222223	1280.7777777777778	-84635.22222222222	0.0	0.0	0.0	0.0	2075.5555555555557	2044.0	2572.8888888888887	0.0	0.0	0.0	0.0	359771473.7777778
2020-06-30 07:32:10.950	2.0	61.0	-69.5	-3.5	-93.7	98831.6	402.0	0.0	14.598174381256104	0.0	0.0	-337.9	1279.8	-84639.1	0.0	0.0	0.0	0.0	2076.0	2044.0	2573.6	0.0	0.0	0.0	0.0	359818941.9
2020-06-30 07:32:11.000	2.0	61.0	-71.8	-3.0	-93.8	98839.8	402.0	0.0	14.585819816589355	0.0	0.0	-338.6	1278.0	-84644.0	0.0	0.0	0.0	0.0	2076.0	2044.0	2572.0	0.0	0.0	0.0	0.0	359874102.3
2020-06-30 07:32:11.050	2.0	61.0	-69.5	-4.5	-94.5	98839.875	402.0	0.0	14.575031161308289	0.0	0.0	-338.75	1277.375	-84649.125	0.0	0.0	0.0	0.0	2076.0	2045.0	2573.0	0.0	0.0	0.0	0.0	359922233.125
2020-06-30 07:32:11.100	2.0	61.0	-70.2	-4.6	-92.6	98838.6	402.0	0.0	14.567355251312256	0.0	0.0	-337.0	1284.3	-84652.9	0.0	0.0	0.0	0.0	2076.0	2046.0	2572.8	0.0	0.0	0.0	0.0	359974273.2
2020-06-30 07:32:11.150	2.0	61.0	-70.66666666666667	-2.2222222222222223	-92.44444444444444	98839.33333333333	402.0	0.0	14.558629565768772	0.0	0.0	-339.1111111111111	1286.6666666666667	-84655.33333333333	0.0	0.0	0.0	0.0	2075.1111111111113	2044.0	2572.0	0.0	0.0	0.0	0.0	360026777.0
2020-06-30 07:32:11.200	2.0	61.0	-70.375	-4.375	-94.625	98842.875	402.0	0.0	14.549096584320068	0.0	0.0	-339.125	1285.125	-84659.0	0.0	0.0	0.0	0.0	2076.0	2044.0	2572.5	0.0	0.0	0.0	0.0	360073127.375
2020-06-30 07:32:11.250	2.0	61.0	-71.375	-2.625	-93.875	98839.5	402.0	0.0	14.542453169822693	0.0	0.0	-341.0	1284.875	-84663.0	0.0	0.0	0.0	0.0	2075.0	2045.0	2574.0	0.0	0.0	0.0	0.0	360118903.625
2020-06-30 07:32:11.300	2.0	61.0	-69.75	-2.75	-95.75	98842.875	402.0	0.0	14.533045887947083	0.0	0.0	-343.75	1283.5	-84666.75	0.0	0.0	0.0	0.0	2076.0	2044.0	2572.0	0.0	0.0	0.0	0.0	360179557.25
2020-06-30 07:32:11.350	2.0	61.0	-70.22222222222223	-6.666666666666667	-95.11111111111111	98845.0	402.0	0.0	14.523284594217936	0.0	0.0	-344.0	1284.0	-84669.0	0.0	0.0	0.0	0.0	2076.0	2044.0	2572.0	0.0	0.0	0.0	0.0	360222181.0
2020-06-30 07:32:11.400	2.0	61.0	-71.63636363636364	-3.272727272727273	-92.72727272727273	98844.81818181818	402.0	0.0	14.51184350794012	0.0	0.0	-342.54545454545456	1284.5454545454545	-84673.63636363637	0.0	0.0	0.0	0.0	2076.0	2044.0	2571.6363636363635	0.0	0.0	0.0	0.0	360272235.6363636
2020-06-30 07:32:11.450	2.0	61.0	-70.4	-5.2	-94.0	98842.8	402.0	0.0	14.499919414520264	0.0	0.0	-341.2	1283.9	-84679.3	0.0	0.0	0.0	0.0	2076.0	2044.0	2572.0	0.0	0.0	0.0	0.0	360324819.3
2020-06-30 07:32:11.500	2.0	61.0	-71.2	-4.0	-96.8	98841.3	402.0	0.0	14.488608074188232	0.0	0.0	-340.7	1282.8	-84684.0	0.0	0.0	0.0	0.0	2076.0	2044.0	2575.2	0.0	0.0	0.0	0.0	360374935.4
2020-06-30 07:32:11.550	2.0	61.0	-70.85714285714286	-0.8571428571428571	-94.85714285714286	98841.85714285714	402.0	0.0	14.480115481785365	0.0	0.0	-342.0	1282.0	-84689.0	0.0	0.0	0.0	0.0	2074.8571428571427	2044.0	2572.5714285714284	0.0	0.0	0.0	0.0	360421141.85714287
2020-06-30 07:32:11.600	2.0	61.0	-71.11111111111111	-2.888888888888889	-93.77777777777777	98839.33333333333	402.0	0.0	14.471743795606825	0.0	0.0	-343.1111111111111	1281.2222222222222	-84694.0	0.0	0.0	0.0	0.0	2076.0	2044.888888888889	2573.3333333333335	0.0	0.0	0.0	0.0	360470929.8888889
2020-06-30 07:32:11.650	2.0	61.0	-68.28571428571429	-4.285714285714286	-93.42857142857143	98842.28571428571	402.0	0.0	14.463262149265834	0.0	0.0	-342.42857142857144	1284.0	-84698.42857142857	0.0	0.0	0.0	0.0	2076.0	2044.5714285714287	2575.4285714285716	0.0	0.0	0.0	0.0	360515454.71428573
2020-06-30 07:32:11.700	2.0	61.0	-69.57142857142857	-6.428571428571429	-93.57142857142857	98839.71428571429	402.0	0.0	14.451776368277413	0.0	0.0	-340.85714285714283	1282.4285714285713	-84702.85714285714	0.0	0.0	0.0	0.0	2076.0	2044.5714285714287	2575.4285714285716	0.0	0.0	0.0	0.0	360567665.71428573
2020-06-30 07:32:11.750	2.0	61.0	-70.3	-4.9	-94.5	98838.6	402.0	0.0	14.441808700561523	0.0	0.0	-339.1	1285.8	-84706.9	0.0	0.0	0.0	0.0	2076.0	2044.8	2572.0	0.0	0.0	0.0	0.0	360620342.6
2020-06-30 07:32:11.800	2.0	61.0	-72.2	-6.2	-92.6	98837.4	402.0	0.0	14.431229591369629	0.0	0.0	-337.4	1286.5	-84711.0	0.0	0.0	0.0	0.0	2076.0	2044.0	2572.0	0.0	0.0	0.0	0.0	360670315.1
2020-06-30 07:32:11.850	2.0	61.0	-72.125	-6.125	-97.625	98838.375	402.0	0.0	14.419695973396301	0.0	0.0	-336.5	1286.625	-84714.25	0.0	0.0	0.0	0.0	2076.0	2044.0	2572.0	0.0	0.0	0.0	0.0	360721725.0
2020-06-30 07:32:11.900	2.0	61.0	-70.11111111111111	-3.2222222222222223	-95.88888888888889	98837.33333333333	402.0	0.0	14.408702002631294	0.0	0.0	-336.0	1286.7777777777778	-84718.0	0.0	0.0	0.0	0.0	2076.0	2044.0	2572.0	0.0	0.0	0.0	0.0	360771354.8888889
2020-06-30 07:32:11.950	2.0	61.0	-69.5	-4.1	-95.3	98838.6	402.0	0.0	14.397784423828124	0.0	0.0	-335.0	1286.4	-84723.7	0.0	0.0	0.0	0.0	2076.0	2044.0	2572.0	0.0	0.0	0.0	0.0	360820596.0
2020-06-30 07:32:12.000	2.0	61.0	-71.1	-3.7	-95.1	98836.8	402.0	0.0	14.388630294799805	0.0	0.0	-333.4	1289.7	-84729.0	0.0	0.0	0.0	0.0	2076.4	2046.4	2572.0	0.0	0.0	0.0	0.0	360870641.7
2020-06-30 07:32:12.050	2.0	61.0	-71.9	-6.5	-92.1	98837.7	402.0	0.0	14.377459526062012	0.0	0.0	-332.3	1292.4	-84733.4	0.0	0.0	0.0	0.0	2076.8	2044.0	2574.0	0.0	0.0	0.0	0.0	360920772.8
2020-06-30 07:32:12.100	2.0	61.0	-72.0	0.4444444444444444	-93.77777777777777	98838.0	402.0	0.0	14.3630919986301	0.0	0.0	-330.0	1290.888888888889	-84737.22222222222	0.0	0.0	0.0	0.0	2076.0	2044.0	2572.4444444444443	0.0	0.0	0.0	0.0	360973289.6666667
2020-06-30 07:32:12.150	2.0	61.0	-72.2	-3.8	-93.8	98835.9	402.0	0.0	14.35285587310791	0.0	0.0	-329.9	1289.7	-84740.5	0.0	0.0	0.0	0.0	2076.0	2044.0	2572.4	0.0	0.0	0.0	0.0	361020998.6
2020-06-30 07:32:12.200	2.0	61.0	-67.3	-3.7	-92.7	98839.2	402.0	0.0	14.341857624053954	0.0	0.0	-330.4	1289.2	-84745.1	0.0	0.0	0.0	0.0	2076.0	2044.0	2572.0	0.0	0.0	0.0	0.0	361070989.5
2020-06-30 07:32:12.250	2.0	61.0	-73.7	-3.5	-93.9	98838.3	402.2	0.0	14.331046772003173	0.0	0.0	-330.6	1288.7	-84749.2	0.0	0.0	0.0	0.0	2076.0	2044.0	2573.2	0.0	0.0	0.0	0.0	361121059.7
2020-06-30 07:32:12.300	2.0	61.0	-69.9	-5.1	-93.1	98838.0	402.0	0.0	14.320082759857177	0.0	0.0	-331.4	1289.0	-84754.5	0.0	0.0	0.0	0.0	2076.0	2044.0	2572.0	0.0	0.0	0.0	0.0	361171093.3
2020-06-30 07:32:12.350	2.0	61.0	-70.55555555555556	-4.555555555555555	-94.55555555555556	98840.33333333333	402.44444444444446	0.0	14.30944432152642	0.0	0.0	-331.0	1288.0	-84758.66666666667	0.0	0.0	0.0	0.0	2076.0	2044.0	2572.4444444444443	0.0	0.0	0.0	0.0	361220377.2222222
2020-06-30 07:32:12.400	2.0	61.0	-73.4	-1.4	-91.8	98841.0	402.8	0.0	14.298461151123046	0.0	0.0	-329.3	1286.6	-84762.9	0.0	0.0	0.0	0.0	2076.0	2044.0	2572.0	0.0	0.0	0.0	0.0	361271261.0
2020-06-30 07:32:12.450	2.0	61.0	-70.3	-4.5	-92.5	98843.7	402.8	0.0	14.28770809173584	0.0	0.0	-328.8	1285.6	-84767.7	0.0	0.0	0.0	0.0	2076.0	2044.0	2572.8	0.0	0.0	0.0	0.0	361321459.5
2020-06-30 07:32:12.500	2.0	61.0	-69.6	-4.4	-94.4	98841.6	402.8	0.0	14.277027034759522	0.0	0.0	-327.4	1284.7	-84770.8	0.0	0.0	0.0	0.0	2076.0	2044.0	2572.0	0.0	0.0	0.0	0.0	361371407.6
2020-06-30 07:32:12.550	2.0	61.0	-71.0	-5.25	-91.25	98840.625	402.75	0.0	14.267212271690369	0.0	0.0	-326.375	1283.75	-84774.625	0.0	0.0	0.0	0.0	2076.0	2044.0	2572.0	0.0	0.0	0.0	0.0	361417811.875
2020-06-30 07:32:12.600	2.0	61.0	-68.625	-4.875	-91.375	98839.5	402.875	0.0	14.255564212799072	0.0	0.0	-325.625	1283.0	-84781.0	0.0	0.0	0.0	0.0	2076.0	2044.0	2572.0	0.0	0.0	0.0	0.0	361472869.375
2020-06-30 07:32:12.650	2.0	61.0	-71.5	-6.1	-93.3	98837.4	403.0	0.0	14.245335388183594	0.0	0.0	-324.7	1280.7	-84786.7	0.0	0.0	0.0	0.0	2076.0	2044.0	2572.0	0.0	0.0	0.0	0.0	361521703.6
2020-06-30 07:32:12.700	2.0	61.0	-69.77777777777777	-2.2222222222222223	-93.11111111111111	98838.0	403.0	0.0	14.235362264845106	0.0	0.0	-325.0	1278.7777777777778	-84790.88888888889	0.0	0.0	0.0	0.0	2076.0	2044.0	2572.8888888888887	0.0	0.0	0.0	0.0	361569223.5555556
2020-06-30 07:32:12.750	2.0	61.0	-70.11111111111111	-5.888888888888889	-92.77777777777777	98837.0	403.0	0.0	14.224917623731825	0.0	0.0	-325.22222222222223	1277.6666666666667	-84795.66666666667	0.0	0.0	0.0	0.0	2076.0	2044.0	2572.4444444444443	0.0	0.0	0.0	0.0	361619326.5555556
2020-06-30 07:32:12.800	2.0	61.0	-70.36363636363636	-5.090909090909091	-91.81818181818181	98833.63636363637	403.0	0.0	14.214141325517135	0.0	0.0	-324.1818181818182	1274.090909090909	-84799.90909090909	0.0	0.0	0.0	0.0	2076.0	2043.6363636363637	2572.7272727272725	0.0	0.0	0.0	0.0	361669518.90909094
2020-06-30 07:32:12.850	2.0	61.0	-71.11111111111111	-4.666666666666667	-91.11111111111111	98837.66666666667	403.0	0.0	14.2036501566569	0.0	0.0	-323.44444444444446	1273.0	-84804.55555555556	0.0	0.0	0.0	0.0	2076.0	2044.0	2573.777777777778	0.0	0.0	0.0	0.0	361719485.3333333
2020-06-30 07:32:12.900	2.0	61.0	-71.8	-4.8	-94.6	98842.2	403.0	0.0	14.192918872833252	0.0	0.0	-322.5	1273.6	-84809.3	0.0	0.0	0.0	0.0	2076.0	2044.0	2574.4	0.0	0.0	0.0	0.0	361772149.1
2020-06-30 07:32:12.950	2.0	61.0	-72.5	-3.7	-91.9	98837.1	403.0	0.0	14.182847881317139	0.0	0.0	-322.4	1273.6	-84814.3	0.0	0.0	0.0	0.0	2076.0	2044.4	2572.0	0.0	0.0	0.0	0.0	361822185.5
2020-06-30 07:32:13.000	2.0	61.0	-66.4	-3.8	-92.8	98840.4	403.0	0.0	14.173143768310547	0.0	0.0	-321.6	1274.1	-84819.3	0.0	0.0	0.0	0.0	2076.0	2044.8	2574.0	0.0	0.0	0.0	0.0	361872271.2
2020-06-30 07:32:13.050	2.0	61.0	-70.66666666666667	-3.5555555555555554	-92.66666666666667	98837.33333333333	403.0	0.0	14.164175563388401	0.0	0.0	-320.6666666666667	1276.6666666666667	-84825.77777777778	0.0	0.0	0.0	0.0	2076.0	2044.0	2572.8888888888887	0.0	0.0	0.0	0.0	361922017.0
2020-06-30 07:32:13.100	2.0	61.0	-71.2	-1.8	-93.4	98838.0	403.0	0.0	14.156922626495362	0.0	0.0	-320.7	1278.3	-84831.5	0.0	0.0	0.0	0.0	2073.6	2044.8	2576.0	0.0	0.0	0.0	0.0	361972433.0
2020-06-30 07:32:13.150	2.0	61.0	-71.2	-2.6	-92.0	98839.8	403.0	0.0	14.154197788238525	0.0	0.0	-325.1	1278.0	-84837.3	0.0	0.0	0.0	0.0	2076.0	2044.0	2572.4	0.0	0.0	0.0	0.0	362022475.6
2020-06-30 07:32:13.200	2.0	61.0	-71.7	-3.3	-93.7	98835.6	403.0	0.0	14.144075870513916	0.0	0.0	-325.0	1276.4	-84841.2	0.0	0.0	0.0	0.0	2076.0	2044.8	2572.0	0.0	0.0	0.0	0.0	362072597.8
2020-06-30 07:32:13.250	2.0	61.0	-70.2	-2.6	-90.6	98837.4	403.0	0.0	14.134719562530517	0.0	0.0	-325.4	1277.8	-84845.6	0.0	0.0	0.0	0.0	2076.0	2044.0	2572.0	0.0	0.0	0.0	0.0	362122652.8
2020-06-30 07:32:13.300	2.0	61.0	-70.9	-3.1	-91.3	98839.8	403.0	0.0	14.124407768249512	0.0	0.0	-325.6	1276.8	-84849.1	0.0	0.0	0.0	0.0	2076.0	2044.0	2572.0	0.0	0.0	0.0	0.0	362172726.0
2020-06-30 07:32:13.350	2.0	61.0	-69.0	-2.7777777777777777	-92.77777777777777	98841.66666666667	403.0	0.0	14.113807572258843	0.0	0.0	-326.22222222222223	1274.6666666666667	-84853.66666666667	0.0	0.0	0.0	0.0	2076.0	2044.0	2572.0	0.0	0.0	0.0	0.0	362224178.2222222
2020-06-30 07:32:13.400	2.0	61.0	-71.22222222222223	-1.6666666666666667	-90.55555555555556	98838.66666666667	403.0	0.0	14.105050722757975	0.0	0.0	-328.22222222222223	1274.2222222222222	-84858.77777777778	0.0	0.0	0.0	0.0	2076.0	2046.2222222222222	2571.1111111111113	0.0	0.0	0.0	0.0	362270419.2222222
2020-06-30 07:32:13.450	2.0	61.0	-67.6	-2.4	-93.2	98841.6	403.0	0.0	14.097392463684082	0.0	0.0	-327.9	1277.9	-84863.3	0.0	0.0	0.0	0.0	2076.0	2044.0	2572.0	0.0	0.0	0.0	0.0	362318005.0
2020-06-30 07:32:13.500	2.0	61.0	-72.22222222222223	-1.3333333333333333	-91.11111111111111	98840.66666666667	403.0	0.0	14.087589263916016	0.0	0.0	-327.44444444444446	1278.4444444444443	-84866.77777777778	0.0	0.0	0.0	0.0	2076.0	2044.0	2572.4444444444443	0.0	0.0	0.0	0.0	362365518.6666667
2020-06-30 07:32:13.550	2.0	61.0	-68.88888888888889	-3.7777777777777777	-91.77777777777777	98843.33333333333	403.0	0.0	14.076558854844835	0.0	0.0	-326.55555555555554	1277.888888888889	-84870.55555555556	0.0	0.0	0.0	0.0	2076.0	2044.0	2572.0	0.0	0.0	0.0	0.0	362419046.5555556
2020-06-30 07:32:13.600	2.0	61.0	-68.28571428571429	-0.8571428571428571	-89.71428571428571	98841.85714285714	403.0	0.0	14.067199979509626	0.0	0.0	-326.57142857142856	1278.4285714285713	-84872.71428571429	0.0	0.0	0.0	0.0	2076.0	2044.0	2572.0	0.0	0.0	0.0	0.0	362464263.5714286
2020-06-30 07:32:13.650	2.0	61.0	-69.875	-2.125	-90.375	98839.5	403.0	0.0	14.055222749710083	0.0	0.0	-328.5	1277.5	-84875.625	0.0	0.0	0.0	0.0	2076.0	2044.0	2572.0	0.0	0.0	0.0	0.0	362522025.375
2020-06-30 07:32:13.700	2.0	61.0	-69.88888888888889	-5.0	-89.22222222222223	98843.33333333333	403.0	0.0	14.04651567671034	0.0	0.0	-328.22222222222223	1279.0	-84879.22222222222	0.0	0.0	0.0	0.0	2076.0	2044.888888888889	2572.0	0.0	0.0	0.0	0.0	362568738.6666667
2020-06-30 07:32:13.750	2.0	61.0	-67.88888888888889	-4.333333333333333	-93.44444444444444	98840.33333333333	403.0	0.0	14.037280824449327	0.0	0.0	-328.0	1278.3333333333333	-84883.77777777778	0.0	0.0	0.0	0.0	2076.4444444444443	2044.0	2571.5555555555557	0.0	0.0	0.0	0.0	362617590.4444444
2020-06-30 07:32:13.800	2.0	61.0	-68.0	-2.0	-91.66666666666667	98839.5	403.0	0.0	14.025234858194986	0.0	0.0	-327.3333333333333	1276.6666666666667	-84889.0	0.0	0.0	0.0	0.0	2076.0	2044.6666666666667	2571.3333333333335	0.0	0.0	0.0	0.0	362669402.5
2020-06-30 07:32:13.850	2.0	61.0	-71.0909090909091	-2.5454545454545454	-91.63636363636364	98843.72727272728	403.0	0.0	14.015003377741033	0.0	0.0	-329.1818181818182	1276.6363636363637	-84894.63636363637	0.0	0.0	0.0	0.0	2076.0	2044.0	2572.0	0.0	0.0	0.0	0.0	362721102.09090906
2020-06-30 07:32:13.900	2.0	61.0	-70.6	-4.2	-90.2	98843.4	403.0	0.0	14.005861282348633	0.0	0.0	-329.8	1277.0	-84899.6	0.0	0.0	0.0	0.0	2076.0	2044.0	2572.0	0.0	0.0	0.0	0.0	362765124.0
2020-06-30 07:32:13.950	2.0	61.0	-67.875	-0.375	-92.375	98843.25	403.0	0.0	13.994774580001831	0.0	0.0	-328.5	1278.625	-84905.25	0.0	0.0	0.0	0.0	2076.0	2046.0	2572.0	0.0	0.0	0.0	0.0	362822543.625
2020-06-30 07:32:14.000	2.0	61.0	-70.5	-5.166666666666667	-90.16666666666667	98839.0	403.0	0.0	13.98620319366455	0.0	0.0	-328.0	1281.8333333333333	-84911.0	0.0	0.0	0.0	0.0	2076.0	2044.0	2572.0	0.0	0.0	0.0	0.0	362872227.5
2020-06-30 07:32:14.050	2.0	61.0	-69.1	-3.3	-89.7	98838.6	403.0	0.0	13.976681900024413	0.0	0.0	-328.2	1280.9	-84916.9	0.0	0.0	0.0	0.0	2076.0	2044.0	2573.6	0.0	0.0	0.0	0.0	362918450.5
2020-06-30 07:32:14.100	2.0	61.0	-72.66666666666667	-3.7777777777777777	-92.66666666666667	98834.33333333333	403.0	0.0	13.966164694892036	0.0	0.0	-327.55555555555554	1280.0	-84920.33333333333	0.0	0.0	0.0	0.0	2076.4444444444443	2044.0	2572.0	0.0	0.0	0.0	0.0	362966545.5555556
2020-06-30 07:32:14.150	2.0	61.0	-69.0909090909091	-3.6363636363636362	-92.72727272727273	98838.0	403.0	0.0	13.955901839516379	0.0	0.0	-325.54545454545456	1281.3636363636363	-84924.63636363637	0.0	0.0	0.0	0.0	2076.0	2045.090909090909	2572.3636363636365	0.0	0.0	0.0	0.0	363016576.27272725
2020-06-30 07:32:14.200	2.0	61.0	-69.4	-3.8	-90.2	98842.8	403.0	0.0	13.946114444732666	0.0	0.0	-324.8	1282.7	-84927.7	0.0	0.0	0.0	0.0	2076.0	2044.0	2572.4	0.0	0.0	0.0	0.0	363069210.2
2020-06-30 07:32:14.250	2.0	61.0	-69.4	-4.6	-93.0	98838.3	403.0	0.0	13.935907649993897	0.0	0.0	-324.9	1282.2	-84931.6	0.0	0.0	0.0	0.0	2076.0	2044.4	2572.0	0.0	0.0	0.0	0.0	363119201.3
2020-06-30 07:32:14.300	2.0	61.0	-68.2	-4.2	-91.0	98838.3	403.0	0.0	13.928189849853515	0.0	0.0	-325.3	1287.6	-84937.6	0.0	0.0	0.0	0.0	2076.0	2046.0	2574.4	0.0	0.0	0.0	0.0	363169307.8
2020-06-30 07:32:14.350	2.0	61.0	-71.81818181818181	-4.0	-94.72727272727273	98840.45454545454	403.0	0.0	13.918687040155584	0.0	0.0	-325.09090909090907	1290.0	-84944.18181818182	0.0	0.0	0.0	0.0	2076.0	2044.3636363636363	2571.2727272727275	0.0	0.0	0.0	0.0	363221909.27272725
2020-06-30 07:32:14.400	2.0	61.0	-68.88888888888889	-4.666666666666667	-92.44444444444444	98846.66666666667	403.0	0.0	13.908700201246473	0.0	0.0	-324.6666666666667	1291.3333333333333	-84950.22222222222	0.0	0.0	0.0	0.0	2076.0	2044.0	2569.777777777778	0.0	0.0	0.0	0.0	363271999.4444444
2020-06-30 07:32:14.450	2.0	61.0	-68.6	-5.4	-90.2	98842.2	403.0	0.0	13.898918914794923	0.0	0.0	-324.9	1291.4	-84955.8	0.0	0.0	0.0	0.0	2076.0	2044.0	2572.0	0.0	0.0	0.0	0.0	363319555.4
2020-06-30 07:32:14.500	2.0	61.0	-70.8	-5.2	-90.0	98847.6	403.0	0.0	13.890976524353027	0.0	0.0	-327.1	1289.8	-84960.0	0.0	0.0	0.0	0.0	2073.6	2044.0	2572.4	0.0	0.0	0.0	0.0	363369613.1
2020-06-30 07:32:14.550	2.0	61.0	-69.8	-3.0	-95.0	98843.7	403.0	0.0	13.889942073822022	0.0	0.0	-333.3	1288.5	-84964.0	0.0	0.0	0.0	0.0	2075.2	2044.0	2572.4	0.0	0.0	0.0	0.0	363419726.0
2020-06-30 07:32:14.600	2.0	61.0	-71.33333333333333	-4.222222222222222	-93.33333333333333	98842.0	403.0	0.0	13.87686538696289	0.0	0.0	-330.8888888888889	1287.0	-84968.11111111111	0.0	0.0	0.0	0.0	2077.777777777778	2044.0	2572.0	0.0	0.0	0.0	0.0	363467298.3333333
2020-06-30 07:32:14.650	2.0	61.0	-70.0	-2.0	-90.18181818181819	98842.36363636363	403.0	0.0	13.861273592168635	0.0	0.0	-325.8181818181818	1286.4545454545455	-84972.09090909091	0.0	0.0	0.0	0.0	2077.090909090909	2044.0	2572.0	0.0	0.0	0.0	0.0	363517366.90909094
2020-06-30 07:32:14.700	2.0	61.0	-68.66666666666667	-3.5555555555555554	-92.66666666666667	98847.66666666667	403.0	0.0	13.849682807922363	0.0	0.0	-322.77777777777777	1287.3333333333333	-84976.44444444444	0.0	0.0	0.0	0.0	2076.0	2046.2222222222222	2572.4444444444443	0.0	0.0	0.0	0.0	363570274.6666667
2020-06-30 07:32:14.750	2.0	61.0	-70.8	-4.8	-93.6	98842.2	403.0	0.0	13.842813396453858	0.0	0.0	-320.8	1293.7	-84980.5	0.0	0.0	0.0	0.0	2076.0	2044.4	2572.0	0.0	0.0	0.0	0.0	363620022.2
2020-06-30 07:32:14.800	2.0	61.0	-69.8	-2.6	-91.4	98842.8	403.0	0.0	13.832808780670167	0.0	0.0	-319.6	1292.5	-84984.9	0.0	0.0	0.0	0.0	2076.0	2044.0	2572.0	0.0	0.0	0.0	0.0	363670134.9
2020-06-30 07:32:14.850	2.0	61.0	-68.6	-3.0	-89.0	98845.2	403.0	0.0	13.824336910247803	0.0	0.0	-318.3	1295.6	-84989.3	0.0	0.0	0.0	0.0	2076.0	2046.4	2572.4	0.0	0.0	0.0	0.0	363720217.3
2020-06-30 07:32:14.900	2.0	61.0	-67.0	-2.3333333333333335	-91.44444444444444	98843.66666666667	403.0	0.0	13.817752414279514	0.0	0.0	-318.0	1301.4444444444443	-84993.77777777778	0.0	0.0	0.0	0.0	2076.0	2045.7777777777778	2572.8888888888887	0.0	0.0	0.0	0.0	363767808.1111111
2020-06-30 07:32:14.950	2.0	61.0	-72.3	-3.7	-89.7	98838.3	403.0	0.0	13.809379768371581	0.0	0.0	-318.5	1303.2	-84999.7	0.0	0.0	0.0	0.0	2076.0	2044.0	2572.0	0.0	0.0	0.0	0.0	363815356.0
2020-06-30 07:32:15.000	2.0	61.0	-70.0	-2.4444444444444446	-91.77777777777777	98840.0	403.0	0.0	13.799088584052193	0.0	0.0	-319.0	1302.111111111111	-85004.55555555556	0.0	0.0	0.0	0.0	2076.0	2045.3333333333333	2572.0	0.0	0.0	0.0	0.0	363866871.5555556
2020-06-30 07:32:15.050	2.0	61.0	-70.2	-3.6	-91.2	98842.2	403.0	0.0	13.791286087036132	0.0	0.0	-318.7	1306.5	-85010.2	0.0	0.0	0.0	0.0	2076.0	2044.4	2572.0	0.0	0.0	0.0	0.0	363915545.1
2020-06-30 07:32:15.100	2.0	61.0	-68.63636363636364	-2.6363636363636362	-90.63636363636364	98842.63636363637	403.0	0.0	13.780696262012828	0.0	0.0	-319.0	1305.0	-85016.90909090909	0.0	0.0	0.0	0.0	2076.0	2044.0	2572.0	0.0	0.0	0.0	0.0	363968117.0
2020-06-30 07:32:15.150	2.0	61.0	-69.2	-3.6	-91.6	98840.4	403.0	0.0	13.770956897735596	0.0	0.0	-319.4	1306.3	-85022.7	0.0	0.0	0.0	0.0	2076.0	2045.6	2572.0	0.0	0.0	0.0	0.0	364020684.4
2020-06-30 07:32:15.200	2.0	61.0	-69.8	-2.2	-89.4	98842.8	403.0	0.0	13.762205791473388	0.0	0.0	-318.9	1307.2	-85028.3	0.0	0.0	0.0	0.0	2076.0	2044.0	2572.0	0.0	0.0	0.0	0.0	364070745.3
2020-06-30 07:32:15.250	2.0	61.0	-69.0	-5.0	-93.4	98840.7	403.1	0.0	13.752027893066407	0.0	0.0	-318.0	1305.8	-85034.4	0.0	0.0	0.0	0.0	2076.0	2044.0	2572.0	0.0	0.0	0.0	0.0	364120821.6
2020-06-30 07:32:15.300	2.0	61.0	-71.4	-2.6	-88.6	98835.3	403.1	0.0	13.742314052581786	0.0	0.0	-316.8	1304.8	-85040.1	0.0	0.0	0.0	0.0	2076.0	2044.4	2572.0	0.0	0.0	0.0	0.0	364170983.4
2020-06-30 07:32:15.350	2.0	61.0	-69.11111111111111	-1.7777777777777777	-90.0	98835.33333333333	403.22222222222223	0.0	13.733076095581055	0.0	0.0	-315.22222222222223	1304.0	-85046.55555555556	0.0	0.0	0.0	0.0	2076.0	2044.0	2572.0	0.0	0.0	0.0	0.0	364218532.4444444
2020-06-30 07:32:15.400	2.0	61.0	-70.0	-4.5	-90.5	98841.0	403.5	0.0	13.723924279212952	0.0	0.0	-314.25	1302.625	-85052.125	0.0	0.0	0.0	0.0	2076.0	2044.0	2572.0	0.0	0.0	0.0	0.0	364264232.25
2020-06-30 07:32:15.450	2.0	61.0	-68.16666666666667	-3.5	-90.16666666666667	98840.0	403.3333333333333	0.0	13.713990211486816	0.0	0.0	-313.1666666666667	1301.3333333333333	-85056.83333333333	0.0	0.0	0.0	0.0	2076.0	2044.0	2572.0	0.0	0.0	0.0	0.0	364314524.0
2020-06-30 07:32:15.500	2.0	61.0	-70.375	-3.875	-88.625	98838.0	403.5	0.0	13.702386856079102	0.0	0.0	-311.375	1301.25	-85062.125	0.0	0.0	0.0	0.0	2076.0	2044.0	2572.0	0.0	0.0	0.0	0.0	364373782.625
2020-06-30 07:32:15.550	2.0	61.0	-68.6	-2.2	-89.0	98838.3	403.7	0.0	13.69303731918335	0.0	0.0	-311.2	1300.8	-85065.5	0.0	0.0	0.0	0.0	2076.4	2044.0	2572.0	0.0	0.0	0.0	0.0	364421337.3
2020-06-30 07:32:15.600	2.0	61.0	-68.66666666666667	-3.3333333333333335	-90.0	98840.0	403.6666666666667	0.0	13.68087535434299	0.0	0.0	-309.0	1300.0	-85070.11111111111	0.0	0.0	0.0	0.0	2076.4444444444443	2044.0	2572.0	0.0	0.0	0.0	0.0	364470031.1111111
2020-06-30 07:32:15.650	2.0	61.0	-68.0	-0.5714285714285714	-88.85714285714286	98842.28571428571	404.0	0.0	13.671820776803154	0.0	0.0	-310.0	1299.857142857143	-85075.71428571429	0.0	0.0	0.0	0.0	2074.8571428571427	2044.0	2572.0	0.0	0.0	0.0	0.0	364516130.28571427
2020-06-30 07:32:15.700	2.0	61.0	-71.5	-2.8333333333333335	-90.5	98838.5	404.0	0.0	13.666062037150065	0.0	0.0	-315.6666666666667	1298.5	-85080.83333333333	0.0	0.0	0.0	0.0	2075.3333333333335	2044.0	2572.6666666666665	0.0	0.0	0.0	0.0	364574014.8333333
2020-06-30 07:32:15.750	2.0	61.0	-71.33333333333333	-2.0	-90.0	98837.22222222222	404.0	0.0	13.657533327738443	0.0	0.0	-316.1111111111111	1298.0	-85085.77777777778	0.0	0.0	0.0	0.0	2076.0	2044.0	2572.4444444444443	0.0	0.0	0.0	0.0	364619180.6666667
2020-06-30 07:32:15.800	2.0	61.0	-70.375	-2.625	-89.375	98838.375	404.0	0.0	13.648139238357544	0.0	0.0	-316.125	1300.875	-85089.875	0.0	0.0	0.0	0.0	2076.0	2044.5	2572.0	0.0	0.0	0.0	0.0	364669208.125
2020-06-30 07:32:15.850	2.0	61.0	-69.71428571428571	-5.714285714285714	-89.71428571428571	98835.85714285714	404.0	0.0	13.639039039611816	0.0	0.0	-316.85714285714283	1302.7142857142858	-85094.71428571429	0.0	0.0	0.0	0.0	2076.0	2044.0	2572.0	0.0	0.0	0.0	0.0	364721504.85714287
2020-06-30 07:32:15.900	2.0	61.0	-72.25	-2.25	-90.75	98841.75	404.0	0.0	13.62948727607727	0.0	0.0	-317.0	1302.75	-85099.5	0.0	0.0	0.0	0.0	2076.0	2044.0	2572.0	0.0	0.0	0.0	0.0	364771919.0
2020-06-30 07:32:15.950	2.0	61.0	-69.8	-4.0	-88.4	98834.6	404.0	0.0	13.620691871643066	0.0	0.0	-318.1	1301.9	-85103.9	0.0	0.0	0.0	0.0	2076.0	2044.0	2572.0	0.0	0.0	0.0	0.0	364816997.8
2020-06-30 07:32:16.000	2.0	61.0	-69.9	-4.1	-90.9	98834.1	404.0	0.0	13.610804271697997	0.0	0.0	-318.1	1301.0	-85108.4	0.0	0.0	0.0	0.0	2076.0	2044.0	2572.0	0.0	0.0	0.0	0.0	364867083.2
2020-06-30 07:32:16.050	2.0	61.0	-69.6	-4.6	-90.6	98830.5	404.0	0.0	13.600934314727784	0.0	0.0	-317.6	1300.2	-85112.4	0.0	0.0	0.0	0.0	2076.0	2044.0	2572.0	0.0	0.0	0.0	0.0	364917180.8
2020-06-30 07:32:16.100	2.0	61.0	-69.2	-3.6	-92.8	98834.3	404.0	0.0	13.591444301605225	0.0	0.0	-316.4	1300.0	-85117.7	0.0	0.0	0.0	0.0	2076.0	2044.4	2571.6	0.0	0.0	0.0	0.0	364967177.8
2020-06-30 07:32:16.150	2.0	61.0	-70.8	-4.2	-92.8	98834.2	404.0	0.0	13.581893157958984	0.0	0.0	-315.2	1299.4	-85123.2	0.0	0.0	0.0	0.0	2076.0	2044.0	2572.8	0.0	0.0	0.0	0.0	365017354.7
2020-06-30 07:32:16.200	2.0	61.0	-69.6	-2.2	-89.4	98840.4	404.0	0.0	13.572078418731689	0.0	0.0	-316.2	1297.6	-85129.9	0.0	0.0	0.0	0.0	2076.0	2044.0	2572.0	0.0	0.0	0.0	0.0	365067354.7
2020-06-30 07:32:16.250	2.0	61.0	-70.9	-2.7	-91.5	98839.2	404.0	0.0	13.562706184387206	0.0	0.0	-316.1	1296.7	-85134.3	0.0	0.0	0.0	0.0	2076.0	2044.4	2574.8	0.0	0.0	0.0	0.0	365117446.3
2020-06-30 07:32:16.300	2.0	61.0	-70.1	-0.9	-91.1	98840.4	404.0	0.0	13.553274440765382	0.0	0.0	-315.1	1296.2	-85139.0	0.0	0.0	0.0	0.0	2076.0	2044.0	2573.6	0.0	0.0	0.0	0.0	365167586.9
2020-06-30 07:32:16.350	2.0	61.0	-69.7	-2.1	-90.7	98843.1	404.0	0.0	13.543797874450684	0.0	0.0	-314.2	1295.2	-85144.1	0.0	0.0	0.0	0.0	2076.0	2044.4	2575.2	0.0	0.0	0.0	0.0	365217644.7
2020-06-30 07:32:16.400	2.0	61.0	-70.0	-2.0	-89.2	98841.3	404.0	0.0	13.534591484069825	0.0	0.0	-314.2	1294.4	-85148.3	0.0	0.0	0.0	0.0	2076.0	2044.0	2572.0	0.0	0.0	0.0	0.0	365267708.8
2020-06-30 07:32:16.450	2.0	61.0	-71.4	-2.4	-91.4	98840.1	404.0	0.0	13.525102710723877	0.0	0.0	-313.4	1292.9	-85152.3	0.0	0.0	0.0	0.0	2076.0	2044.8	2572.0	0.0	0.0	0.0	0.0	365317794.3
2020-06-30 07:32:16.500	2.0	61.0	-70.0	-2.8	-90.4	98839.6	404.0	0.0	13.518974685668946	0.0	0.0	-313.7	1298.7	-85158.0	0.0	0.0	0.0	0.0	2076.0	2048.0	2573.2	0.0	0.0	0.0	0.0	365367907.0
2020-06-30 07:32:16.550	2.0	61.0	-68.77777777777777	-2.5555555555555554	-89.66666666666667	98840.66666666667	404.0	0.0	13.51306184132894	0.0	0.0	-314.22222222222223	1304.5555555555557	-85162.33333333333	0.0	0.0	0.0	0.0	2076.0	2044.0	2572.8888888888887	0.0	0.0	0.0	0.0	365415425.0
2020-06-30 07:32:16.600	2.0	61.0	-66.0	-2.0	-90.0	98844.0	404.0	0.0	13.508185386657715	0.0	0.0	-315.0	1304.0	-85163.0	0.0	0.0	0.0	0.0	2076.0	2044.0	2572.0	0.0	0.0	0.0	0.0	365440521.0
2020-06-30 07:32:16.650	2.0	61.0	-70.875	-4.125	-91.125	98844.0	404.0	0.0	13.495907187461853	0.0	0.0	-315.0	1300.25	-85171.25	0.0	0.0	0.0	0.0	2074.5	2044.0	2572.5	0.0	0.0	0.0	0.0	365508811.25
2020-06-30 07:32:16.700	2.0	61.0	-69.2	-3.0	-90.8	98843.7	404.0	0.0	13.488637828826905	0.0	0.0	-316.9	1299.6	-85177.5	0.0	0.0	0.0	0.0	2076.0	2045.2	2572.0	0.0	0.0	0.0	0.0	365568169.6
2020-06-30 07:32:16.750	2.0	61.0	-68.0	-3.4	-89.6	98844.6	404.0	0.0	13.47895622253418	0.0	0.0	-314.6	1300.1	-85182.1	0.0	0.0	0.0	0.0	2076.4	2044.0	2573.6	0.0	0.0	0.0	0.0	365618352.7
2020-06-30 07:32:16.800	2.0	61.0	-70.5	-2.5	-90.5	98842.125	404.0	0.0	13.469412684440613	0.0	0.0	-313.5	1298.375	-85185.625	0.0	0.0	0.0	0.0	2076.0	2044.5	2572.0	0.0	0.0	0.0	0.0	365666503.375
2020-06-30 07:32:16.850	2.0	61.0	-68.125	-2.625	-92.125	98840.625	404.0	0.0	13.462387919425964	0.0	0.0	-312.0	1303.75	-85189.625	0.0	0.0	0.0	0.0	2076.0	2046.0	2572.0	0.0	0.0	0.0	0.0	365716552.25
2020-06-30 07:32:16.900	2.0	61.0	-68.63636363636364	-3.3636363636363638	-92.27272727272727	98839.63636363637	404.0	0.0	13.452696973627264	0.0	0.0	-312.45454545454544	1305.0	-85194.45454545454	0.0	0.0	0.0	0.0	2076.0	2044.0	2571.6363636363635	0.0	0.0	0.0	0.0	365771006.72727275
2020-06-30 07:32:16.950	2.0	61.0	-70.0	-2.888888888888889	-91.55555555555556	98842.0	404.0	0.0	13.443075815836588	0.0	0.0	-313.0	1305.111111111111	-85199.11111111111	0.0	0.0	0.0	0.0	2076.0	2044.4444444444443	2570.222222222222	0.0	0.0	0.0	0.0	365821135.8888889
2020-06-30 07:32:17.000	2.0	61.0	-70.66666666666667	-4.0	-90.44444444444444	98839.0	404.0	0.0	13.434723006354439	0.0	0.0	-312.77777777777777	1306.0	-85203.55555555556	0.0	0.0	0.0	0.0	2076.0	2044.0	2572.8888888888887	0.0	0.0	0.0	0.0	365867298.8888889
2020-06-30 07:32:17.050	2.0	61.0	-71.66666666666667	-3.6666666666666665	-91.66666666666667	98841.66666666667	404.0	0.0	13.425162421332466	0.0	0.0	-312.55555555555554	1305.0	-85209.11111111111	0.0	0.0	0.0	0.0	2076.0	2044.0	2571.5555555555557	0.0	0.0	0.0	0.0	365917347.7777778
2020-06-30 07:32:17.100	2.0	61.0	-71.5	-3.5	-91.5	98839.2	404.0	0.0	13.415479755401611	0.0	0.0	-312.7	1305.9	-85214.2	0.0	0.0	0.0	0.0	2076.0	2044.4	2572.0	0.0	0.0	0.0	0.0	365968783.0
2020-06-30 07:32:17.150	2.0	61.0	-71.5	-3.1	-91.5	98840.4	404.0	0.0	13.406353855133057	0.0	0.0	-310.3	1304.4	-85219.0	0.0	0.0	0.0	0.0	2076.0	2044.0	2572.0	0.0	0.0	0.0	0.0	366018972.3
2020-06-30 07:32:17.200	2.0	61.0	-70.3	-2.7	-91.1	98841.0	404.0	0.0	13.39681043624878	0.0	0.0	-310.4	1302.5	-85222.6	0.0	0.0	0.0	0.0	2076.0	2044.0	2572.0	0.0	0.0	0.0	0.0	366068972.3
2020-06-30 07:32:17.250	2.0	61.0	-70.7	-0.7	-90.9	98844.9	404.0	0.0	13.387329959869385	0.0	0.0	-310.5	1301.0	-85226.0	0.0	0.0	0.0	0.0	2076.0	2044.0	2572.0	0.0	0.0	0.0	0.0	366119063.7
2020-06-30 07:32:17.300	2.0	61.0	-70.5	-5.3	-90.7	98839.5	404.0	0.0	13.378038692474366	0.0	0.0	-309.2	1299.7	-85230.9	0.0	0.0	0.0	0.0	2076.0	2044.4	2573.2	0.0	0.0	0.0	0.0	366169222.6
2020-06-30 07:32:17.350	2.0	61.0	-70.88888888888889	-3.7777777777777777	-92.0	98841.0	404.0	0.0	13.3708619011773	0.0	0.0	-310.8888888888889	1304.2222222222222	-85235.33333333333	0.0	0.0	0.0	0.0	2076.0	2045.7777777777778	2574.6666666666665	0.0	0.0	0.0	0.0	366217328.6666667
2020-06-30 07:32:17.400	2.0	61.0	-69.3	-1.5	-93.3	98840.7	404.0	0.0	13.361891174316407	0.0	0.0	-311.2	1303.5	-85240.1	0.0	0.0	0.0	0.0	2076.0	2044.0	2572.4	0.0	0.0	0.0	0.0	366269365.8
2020-06-30 07:32:17.450	2.0	61.0	-67.55555555555556	-4.444444444444445	-89.55555555555556	98844.0	404.0	0.0	13.35280089908176	0.0	0.0	-311.0	1302.2222222222222	-85244.77777777778	0.0	0.0	0.0	0.0	2075.5555555555557	2044.0	2572.0	0.0	0.0	0.0	0.0	366321902.3333333
2020-06-30 07:32:17.500	2.0	61.0	-69.7	-3.5	-91.9	98837.5	404.0	0.0	13.345126342773437	0.0	0.0	-311.6	1299.6	-85248.9	0.0	0.0	0.0	0.0	2075.6	2044.0	2572.0	0.0	0.0	0.0	0.0	366369491.0
2020-06-30 07:32:17.550	2.0	61.0	-69.6	-2.2	-89.4	98843.4	404.0	0.0	13.339471054077148	0.0	0.0	-314.0	1302.7	-85254.2	0.0	0.0	0.0	0.0	2075.6	2046.0	2572.0	0.0	0.0	0.0	0.0	366419570.5
2020-06-30 07:32:17.600	2.0	61.0	-68.7	-5.5	-90.3	98844.0	404.0	0.0	13.332067203521728	0.0	0.0	-313.7	1306.4	-85257.9	0.0	0.0	0.0	0.0	2076.0	2044.8	2572.0	0.0	0.0	0.0	0.0	366469655.9
2020-06-30 07:32:17.650	2.0	61.0	-73.2	-4.8	-90.4	98841.9	404.0	0.0	13.32289924621582	0.0	0.0	-313.7	1306.1	-85263.5	0.0	0.0	0.0	0.0	2076.0	2044.0	2572.0	0.0	0.0	0.0	0.0	366519704.6
2020-06-30 07:32:17.700	2.0	61.0	-70.5	-4.1	-90.3	98845.5	404.0	0.0	13.314440250396729	0.0	0.0	-314.0	1306.9	-85267.9	0.0	0.0	0.0	0.0	2076.0	2046.8	2572.0	0.0	0.0	0.0	0.0	366569799.3
2020-06-30 07:32:17.750	2.0	61.0	-72.0	-4.75	-90.5	98837.625	404.0	0.0	13.310140013694763	0.0	0.0	-314.0	1316.875	-85273.0	0.0	0.0	0.0	0.0	2076.0	2047.5	2572.0	0.0	0.0	0.0	0.0	366617972.875
2020-06-30 07:32:17.800	2.0	61.0	-73.11111111111111	-2.2222222222222223	-89.11111111111111	98842.33333333333	404.0	0.0	13.303762435913086	0.0	0.0	-313.6666666666667	1322.6666666666667	-85278.33333333333	0.0	0.0	0.0	0.0	2076.0	2044.4444444444443	2572.0	0.0	0.0	0.0	0.0	366662970.0
2020-06-30 07:32:17.850	2.0	61.0	-72.0	-4.0	-90.28571428571429	98840.14285714286	404.0	0.0	13.295482907976423	0.0	0.0	-311.42857142857144	1326.2857142857142	-85283.71428571429	0.0	0.0	0.0	0.0	2076.0	2045.142857142857	2572.5714285714284	0.0	0.0	0.0	0.0	366717554.85714287
2020-06-30 07:32:17.900	2.0	61.0	-69.4	-2.8	-90.4	98842.8	404.0	0.0	13.2873703956604	0.0	0.0	-309.2	1329.5	-85289.4	0.0	0.0	0.0	0.0	2076.0	2046.4	2571.2	0.0	0.0	0.0	0.0	366769167.7
2020-06-30 07:32:17.950	2.0	61.0	-69.88888888888889	-3.2222222222222223	-89.88888888888889	98842.33333333333	404.0	0.0	13.286010636223686	0.0	0.0	-312.1111111111111	1336.3333333333333	-85295.55555555556	0.0	0.0	0.0	0.0	2073.3333333333335	2045.3333333333333	2573.777777777778	0.0	0.0	0.0	0.0	366817687.6666667
2020-06-30 07:32:18.000	2.0	61.0	-69.81818181818181	-4.7272727272727275	-90.0	98843.18181818182	404.0	0.0	13.284751111810857	0.0	0.0	-319.8181818181818	1335.2727272727273	-85299.72727272728	0.0	0.0	0.0	0.0	2073.090909090909	2044.0	2575.2727272727275	0.0	0.0	0.0	0.0	366867805.72727275
2020-06-30 07:32:18.050	2.0	61.0	-71.2	-3.2	-92.6	98845.5	404.0	0.0	13.28352394104004	0.0	0.0	-328.5	1333.6	-85304.4	0.0	0.0	0.0	0.0	2075.6	2044.0	2572.0	0.0	0.0	0.0	0.0	366920366.9
2020-06-30 07:32:18.100	2.0	61.0	-69.33333333333333	-2.6666666666666665	-93.33333333333333	98841.66666666667	404.0	0.0	13.273968166775173	0.0	0.0	-328.0	1331.888888888889	-85310.55555555556	0.0	0.0	0.0	0.0	2076.0	2044.0	2572.8888888888887	0.0	0.0	0.0	0.0	366967945.8888889
2020-06-30 07:32:18.150	2.0	61.0	-68.72727272727273	-5.454545454545454	-91.27272727272727	98844.0	404.0	0.0	13.263664765791459	0.0	0.0	-327.72727272727275	1330.2727272727273	-85314.72727272728	0.0	0.0	0.0	0.0	2076.0	2044.0	2572.0	0.0	0.0	0.0	0.0	367018052.0
2020-06-30 07:32:18.200	2.0	61.0	-67.55555555555556	-4.0	-93.33333333333333	98841.33333333333	404.0	0.0	13.25347794426812	0.0	0.0	-327.3333333333333	1327.0	-85318.44444444444	0.0	0.0	0.0	0.0	2076.0	2044.0	2572.8888888888887	0.0	0.0	0.0	0.0	367068084.1111111
2020-06-30 07:32:18.250	2.0	61.0	-68.8	-5.2	-93.2	98843.7	404.4	0.0	13.243843364715577	0.0	0.0	-326.2	1324.8	-85322.0	0.0	0.0	0.0	0.0	2076.0	2044.0	2572.0	0.0	0.0	0.0	0.0	367115615.4
2020-06-30 07:32:18.300	2.0	61.0	-70.27272727272727	-5.181818181818182	-90.27272727272727	98843.18181818182	404.54545454545456	0.0	13.234082742170854	0.0	0.0	-326.0	1323.8181818181818	-85326.45454545454	0.0	0.0	0.0	0.0	2075.6363636363635	2045.090909090909	2572.0	0.0	0.0	0.0	0.0	367168309.54545456
2020-06-30 07:32:18.350	2.0	61.0	-69.22222222222223	-3.4444444444444446	-92.33333333333333	98844.33333333333	404.1111111111111	0.0	13.226335525512695	0.0	0.0	-326.0	1324.7777777777778	-85329.77777777778	0.0	0.0	0.0	0.0	2076.0	2044.0	2572.0	0.0	0.0	0.0	0.0	367218373.1111111
2020-06-30 07:32:18.400	2.0	61.0	-68.18181818181819	-5.636363636363637	-91.63636363636364	98847.0	404.8181818181818	0.0	13.21749479120428	0.0	0.0	-326.0	1325.8181818181818	-85335.36363636363	0.0	0.0	0.0	0.0	2076.0	2045.4545454545455	2572.0	0.0	0.0	0.0	0.0	367268420.90909094
2020-06-30 07:32:18.450	2.0	61.0	-70.44444444444444	-3.3333333333333335	-92.88888888888889	98845.0	404.55555555555554	0.0	13.208301226298014	0.0	0.0	-325.6666666666667	1326.0	-85340.11111111111	0.0	0.0	0.0	0.0	2076.0	2044.0	2572.0	0.0	0.0	0.0	0.0	367318525.0
2020-06-30 07:32:18.500	2.0	61.0	-70.18181818181819	-2.0	-92.72727272727273	98838.81818181818	404.8181818181818	0.0	13.194117285988547	0.0	0.0	-321.3636363636364	1323.2727272727273	-85344.45454545454	0.0	0.0	0.0	0.0	2077.818181818182	2044.0	2572.0	0.0	0.0	0.0	0.0	367368632.45454544
2020-06-30 07:32:18.550	2.0	61.0	-70.66666666666667	-1.5555555555555556	-92.44444444444444	98839.0	405.0	0.0	13.181141111585829	0.0	0.0	-316.8888888888889	1321.5555555555557	-85350.33333333333	0.0	0.0	0.0	0.0	2075.5555555555557	2044.0	2572.0	0.0	0.0	0.0	0.0	367418714.2222222
2020-06-30 07:32:18.600	2.0	61.0	-71.6	-4.8	-91.2	98837.4	404.8	0.0	13.175035381317139	0.0	0.0	-318.3	1320.4	-85355.1	0.0	0.0	0.0	0.0	2075.2	2044.0	2572.0	0.0	0.0	0.0	0.0	367466366.0
2020-06-30 07:32:18.650	2.0	61.0	-72.4	-3.6	-92.0	98841.0	405.0	0.0	13.166655254364013	0.0	0.0	-318.0	1318.7	-85360.7	0.0	0.0	0.0	0.0	2076.0	2044.0	2572.0	0.0	0.0	0.0	0.0	367516302.0
2020-06-30 07:32:18.700	2.0	61.0	-70.2	-3.4	-91.0	98839.2	405.0	0.0	13.157286167144775	0.0	0.0	-316.3	1318.3	-85365.9	0.0	0.0	0.0	0.0	2076.0	2044.4	2572.0	0.0	0.0	0.0	0.0	367566418.0
2020-06-30 07:32:18.750	2.0	61.0	-69.4	-4.6	-92.6	98838.6	405.0	0.0	13.147963809967042	0.0	0.0	-316.6	1318.1	-85371.2	0.0	0.0	0.0	0.0	2076.0	2044.8	2572.0	0.0	0.0	0.0	0.0	367616448.4
2020-06-30 07:32:18.800	2.0	61.0	-68.8	-2.8	-91.6	98837.4	405.0	0.0	13.139342117309571	0.0	0.0	-316.8	1319.8	-85376.2	0.0	0.0	0.0	0.0	2076.0	2044.0	2574.4	0.0	0.0	0.0	0.0	367666579.7
2020-06-30 07:32:18.850	2.0	61.0	-69.2	-3.2	-92.0	98840.4	405.0	0.0	13.129341888427735	0.0	0.0	-316.2	1317.0	-85381.6	0.0	0.0	0.0	0.0	2076.0	2043.6	2572.4	0.0	0.0	0.0	0.0	367716631.8
2020-06-30 07:32:18.900	2.0	61.0	-68.63636363636364	-1.5454545454545454	-90.63636363636364	98838.27272727272	405.0	0.0	13.119585037231445	0.0	0.0	-316.45454545454544	1316.2727272727273	-85386.81818181818	0.0	0.0	0.0	0.0	2076.0	2045.090909090909	2572.0	0.0	0.0	0.0	0.0	367769253.3636364
2020-06-30 07:32:18.950	2.0	61.0	-71.88888888888889	-4.111111111111111	-91.22222222222223	98843.0	405.0	0.0	13.111724005805122	0.0	0.0	-317.1111111111111	1318.0	-85389.66666666667	0.0	0.0	0.0	0.0	2076.0	2044.4444444444443	2572.0	0.0	0.0	0.0	0.0	367819342.1111111
2020-06-30 07:32:19.000	2.0	61.0	-70.0	-1.2	-90.8	98845.5	405.0	0.0	13.103245067596436	0.0	0.0	-315.7	1319.2	-85394.8	0.0	0.0	0.0	0.0	2076.0	2044.8	2572.0	0.0	0.0	0.0	0.0	367866903.2
2020-06-30 07:32:19.050	2.0	61.0	-69.4	-4.2	-92.2	98843.7	405.0	0.0	13.094376182556152	0.0	0.0	-313.9	1318.6	-85400.2	0.0	0.0	0.0	0.0	2076.0	2044.0	2572.8	0.0	0.0	0.0	0.0	367916973.4
2020-06-30 07:32:19.100	2.0	61.0	-71.0	-6.6	-93.4	98841.9	405.0	0.0	13.084880065917968	0.0	0.0	-314.6	1316.7	-85405.9	0.0	0.0	0.0	0.0	2076.0	2044.0	2572.0	0.0	0.0	0.0	0.0	367967107.6
2020-06-30 07:32:19.150	2.0	61.0	-69.4	-3.0	-92.6	98842.8	405.0	0.0	13.075363445281983	0.0	0.0	-315.8	1314.6	-85410.5	0.0	0.0	0.0	0.0	2076.0	2044.0	2572.0	0.0	0.0	0.0	0.0	368017120.1
2020-06-30 07:32:19.200	2.0	61.0	-69.2	-4.8	-92.8	98844.6	405.0	0.0	13.06585340499878	0.0	0.0	-318.0	1313.2	-85413.9	0.0	0.0	0.0	0.0	2076.0	2044.0	2570.4	0.0	0.0	0.0	0.0	368067345.8
2020-06-30 07:32:19.250	2.0	61.0	-70.2	-5.8	-89.8	98841.3	405.0	0.0	13.056363105773926	0.0	0.0	-318.0	1312.0	-85418.9	0.0	0.0	0.0	0.0	2076.0	2044.0	2570.0	0.0	0.0	0.0	0.0	368117287.6
2020-06-30 07:32:19.300	2.0	61.0	-70.0	-3.6	-94.4	98842.8	405.0	0.0	13.045639419555664	0.0	0.0	-316.7	1311.0	-85423.5	0.0	0.0	0.0	0.0	2078.0	2044.0	2574.4	0.0	0.0	0.0	0.0	368167434.1
2020-06-30 07:32:19.350	2.0	61.0	-69.2	-4.4	-93.6	98846.4	405.0	0.0	13.026770973205567	0.0	0.0	-309.1	1309.5	-85429.0	0.0	0.0	0.0	0.0	2077.6	2044.0	2572.0	0.0	0.0	0.0	0.0	368217434.3
2020-06-30 07:32:19.400	2.0	61.0	-69.2	-6.0	-91.2	98843.1	405.0	0.0	13.015273284912109	0.0	0.0	-307.6	1307.7	-85433.5	0.0	0.0	0.0	0.0	2076.0	2044.0	2572.0	0.0	0.0	0.0	0.0	368267565.6
2020-06-30 07:32:19.450	2.0	61.0	-69.2	-2.4	-93.2	98845.2	405.0	0.0	13.006253242492676	0.0	0.0	-307.7	1306.4	-85438.0	0.0	0.0	0.0	0.0	2076.0	2044.0	2571.6	0.0	0.0	0.0	0.0	368317605.1
2020-06-30 07:32:19.500	2.0	61.0	-70.6	-1.0	-93.8	98843.4	405.0	0.0	12.997199058532715	0.0	0.0	-307.7	1305.7	-85442.3	0.0	0.0	0.0	0.0	2076.0	2044.0	2573.6	0.0	0.0	0.0	0.0	368367730.1
2020-06-30 07:32:19.550	2.0	61.0	-71.54545454545455	-3.909090909090909	-91.72727272727273	98839.09090909091	405.0	0.0	12.987787160006436	0.0	0.0	-308.09090909090907	1304.3636363636363	-85448.18181818182	0.0	0.0	0.0	0.0	2076.0	2044.0	2572.0	0.0	0.0	0.0	0.0	368420262.6363636
2020-06-30 07:32:19.600	2.0	61.0	-68.0	-2.857142857142857	-90.28571428571429	98840.57142857143	405.0	0.0	12.97802666255406	0.0	0.0	-307.42857142857144	1302.857142857143	-85453.28571428571	0.0	0.0	0.0	0.0	2076.0	2044.0	2573.1428571428573	0.0	0.0	0.0	0.0	368474665.5714286
2020-06-30 07:32:19.650	2.0	61.0	-70.25	-2.25	-93.5	98838.75	405.0	0.0	12.969551801681519	0.0	0.0	-307.0	1301.875	-85458.125	0.0	0.0	0.0	0.0	2076.0	2044.0	2572.0	0.0	0.0	0.0	0.0	368522349.875
2020-06-30 07:32:19.700	2.0	61.0	-69.1	-5.3	-92.3	98837.1	405.0	0.0	12.960615921020509	0.0	0.0	-306.7	1299.9	-85463.3	0.0	0.0	0.0	0.0	2076.0	2044.0	2574.8	0.0	0.0	0.0	0.0	368572558.1
2020-06-30 07:32:19.750	2.0	61.0	-68.8	-5.0	-92.6	98839.2	405.0	0.0	12.951050853729248	0.0	0.0	-305.7	1298.5	-85469.1	0.0	0.0	0.0	0.0	2076.4	2044.0	2576.0	0.0	0.0	0.0	0.0	368623147.0
2020-06-30 07:32:19.800	2.0	61.0	-68.75	-4.0	-90.5	98843.25	405.0	0.0	12.941597819328308	0.0	0.0	-306.125	1297.0	-85475.5	0.0	0.0	0.0	0.0	2076.0	2044.0	2573.5	0.0	0.0	0.0	0.0	368672652.625
2020-06-30 07:32:19.850	2.0	61.0	-69.8	-3.4	-94.6	98838.9	405.0	0.0	12.933552932739257	0.0	0.0	-307.3	1295.2	-85479.5	0.0	0.0	0.0	0.0	2076.0	2044.0	2572.4	0.0	0.0	0.0	0.0	368718426.0
2020-06-30 07:32:19.900	2.0	61.0	-69.7	-1.7	-92.7	98842.5	405.0	0.0	12.924675559997558	0.0	0.0	-308.0	1293.6	-85484.4	0.0	0.0	0.0	0.0	2076.0	2044.0	2572.4	0.0	0.0	0.0	0.0	368768840.9
2020-06-30 07:32:19.950	2.0	61.0	-69.6	-4.2	-93.6	98841.9	405.0	0.0	12.91512508392334	0.0	0.0	-308.7	1291.9	-85490.3	0.0	0.0	0.0	0.0	2076.0	2044.0	2574.0	0.0	0.0	0.0	0.0	368823437.0
2020-06-30 07:32:20.000	2.0	61.0	-67.75	-1.75	-91.75	98842.875	405.0	0.0	12.906697034835815	0.0	0.0	-309.125	1290.0	-85494.125	0.0	0.0	0.0	0.0	2076.0	2044.0	2574.0	0.0	0.0	0.0	0.0	368871619.75
2020-06-30 07:32:20.050	2.0	61.0	-69.55555555555556	-3.111111111111111	-92.22222222222223	98844.66666666667	405.0	0.0	12.898070017496744	0.0	0.0	-308.8888888888889	1288.6666666666667	-85497.66666666667	0.0	0.0	0.0	0.0	2076.0	2044.0	2572.0	0.0	0.0	0.0	0.0	368921125.2222222
2020-06-30 07:32:20.100	2.0	61.0	-71.8	-5.0	-90.6	98839.2	405.0	0.0	12.8898193359375	0.0	0.0	-308.2	1288.7	-85502.3	0.0	0.0	0.0	0.0	2076.0	2044.0	2572.0	0.0	0.0	0.0	0.0	368968670.2
2020-06-30 07:32:20.150	2.0	61.0	-71.33333333333333	-1.7777777777777777	-94.22222222222223	98840.33333333333	405.0	0.0	12.881156179640028	0.0	0.0	-308.0	1288.5555555555557	-85507.33333333333	0.0	0.0	0.0	0.0	2076.0	2044.0	2575.1111111111113	0.0	0.0	0.0	0.0	369018503.4444444
2020-06-30 07:32:20.200	2.0	61.0	-70.6	-5.0	-92.2	98846.1	405.0	0.0	12.870541191101074	0.0	0.0	-305.9	1286.7	-85513.0	0.0	0.0	0.0	0.0	2078.4	2044.0	2572.4	0.0	0.0	0.0	0.0	369068813.5
2020-06-30 07:32:20.250	2.0	61.0	-71.2	-2.0	-88.0	98847.6	405.0	0.0	12.855326843261718	0.0	0.0	-299.2	1285.9	-85518.2	0.0	0.0	0.0	0.0	2076.0	2044.0	2573.2	0.0	0.0	0.0	0.0	369118950.9
2020-06-30 07:32:20.300	2.0	61.0	-68.66666666666667	-4.444444444444445	-92.44444444444444	98847.55555555556	405.0	0.0	12.84294605255127	0.0	0.0	-295.44444444444446	1284.111111111111	-85525.22222222222	0.0	0.0	0.0	0.0	2077.3333333333335	2044.0	2574.6666666666665	0.0	0.0	0.0	0.0	369174221.0
2020-06-30 07:32:20.350	2.0	61.0	-69.11111111111111	-4.0	-92.66666666666667	98846.0	405.0	0.0	12.834058125813803	0.0	0.0	-295.0	1281.5555555555557	-85529.77777777778	0.0	0.0	0.0	0.0	2076.0	2044.0	2573.3333333333335	0.0	0.0	0.0	0.0	369221621.6666667
2020-06-30 07:32:20.400	2.0	61.0	-69.36363636363636	-3.0	-92.27272727272727	98845.63636363637	405.0	0.0	12.82408280806108	0.0	0.0	-294.3636363636364	1279.5454545454545	-85534.54545454546	0.0	0.0	0.0	0.0	2076.7272727272725	2044.0	2572.0	0.0	0.0	0.0	0.0	369271669.6363636
2020-06-30 07:32:20.450	2.0	61.0	-70.11111111111111	-2.7777777777777777	-93.22222222222223	98846.0	405.0	0.0	12.813990698920357	0.0	0.0	-294.44444444444446	1278.4444444444443	-85539.88888888889	0.0	0.0	0.0	0.0	2076.4444444444443	2044.0	2572.0	0.0	0.0	0.0	0.0	369321814.1111111
2020-06-30 07:32:20.500	2.0	61.0	-70.2	-2.2	-91.4	98845.8	405.0	0.0	12.80583209991455	0.0	0.0	-295.0	1277.6	-85545.6	0.0	0.0	0.0	0.0	2076.0	2044.0	2572.0	0.0	0.0	0.0	0.0	369369371.9
2020-06-30 07:32:20.550	2.0	61.0	-67.5	-2.25	-91.75	98845.5	405.0	0.0	12.79805850982666	0.0	0.0	-293.75	1277.875	-85550.75	0.0	0.0	0.0	0.0	2076.0	2044.0	2573.5	0.0	0.0	0.0	0.0	369418231.5
2020-06-30 07:32:20.600	2.0	61.0	-69.6	-1.8	-91.6	98839.8	405.0	0.0	12.789338493347168	0.0	0.0	-292.3	1277.4	-85556.0	0.0	0.0	0.0	0.0	2076.0	2044.0	2572.0	0.0	0.0	0.0	0.0	369472988.4
2020-06-30 07:32:20.650	2.0	61.0	-70.57142857142857	-5.142857142857143	-92.57142857142857	98844.42857142857	405.0	0.0	12.780754089355469	0.0	0.0	-292.0	1277.142857142857	-85561.14285714286	0.0	0.0	0.0	0.0	2076.0	2044.0	2572.5714285714284	0.0	0.0	0.0	0.0	369527094.85714287
2020-06-30 07:32:20.700	2.0	61.0	-69.66666666666667	-4.333333333333333	-91.44444444444444	98842.0	405.0	0.0	12.773630142211914	0.0	0.0	-291.0	1276.7777777777778	-85565.66666666667	0.0	0.0	0.0	0.0	2076.0	2043.5555555555557	2572.0	0.0	0.0	0.0	0.0	369570461.1111111
2020-06-30 07:32:20.750	2.0	61.0	-68.77777777777777	-5.666666666666667	-91.88888888888889	98840.66666666667	405.0	0.0	12.765165646870932	0.0	0.0	-291.44444444444446	1277.0	-85571.55555555556	0.0	0.0	0.0	0.0	2076.0	2044.0	2572.0	0.0	0.0	0.0	0.0	369622229.1111111
2020-06-30 07:32:20.800	2.0	61.0	-71.18181818181819	-2.8181818181818183	-92.81818181818181	98842.36363636363	405.0	0.0	12.755673755298961	0.0	0.0	-290.54545454545456	1275.5454545454545	-85576.72727272728	0.0	0.0	0.0	0.0	2076.7272727272725	2044.0	2572.0	0.0	0.0	0.0	0.0	369672326.6363636
2020-06-30 07:32:20.850	2.0	61.0	-69.0	-5.444444444444445	-92.33333333333333	98838.0	405.0	0.0	12.746628125508627	0.0	0.0	-289.77777777777777	1274.4444444444443	-85583.44444444444	0.0	0.0	0.0	0.0	2076.0	2044.0	2572.0	0.0	0.0	0.0	0.0	369722431.8888889
2020-06-30 07:32:20.900	2.0	61.0	-69.4	-3.0	-93.8	98836.8	405.0	0.0	12.739146518707276	0.0	0.0	-290.5	1274.6	-85588.7	0.0	0.0	0.0	0.0	2076.0	2044.0	2572.8	0.0	0.0	0.0	0.0	369769945.9
2020-06-30 07:32:20.950	2.0	61.0	-70.44444444444444	-5.111111111111111	-92.0	98840.66666666667	405.0	0.0	12.73177072736952	0.0	0.0	-290.0	1276.0	-85593.22222222222	0.0	0.0	0.0	0.0	2076.0	2044.0	2572.0	0.0	0.0	0.0	0.0	369817589.0
2020-06-30 07:32:21.000	2.0	61.0	-69.63636363636364	-4.545454545454546	-92.36363636363636	98840.72727272728	405.0	0.0	12.723685351285068	0.0	0.0	-289.6363636363636	1275.1818181818182	-85598.72727272728	0.0	0.0	0.0	0.0	2076.0	2043.2727272727273	2572.3636363636365	0.0	0.0	0.0	0.0	369867575.45454544
2020-06-30 07:32:21.050	2.0	61.0	-70.8	-4.4	-89.2	98842.5	405.0	0.0	12.71447286605835	0.0	0.0	-291.3	1272.5	-85603.3	0.0	0.0	0.0	0.0	2076.4	2044.0	2572.0	0.0	0.0	0.0	0.0	369920232.7
2020-06-30 07:32:21.100	2.0	61.0	-70.8	-5.2	-90.4	98839.2	405.0	0.0	12.705514717102051	0.0	0.0	-290.6	1271.8	-85607.8	0.0	0.0	0.0	0.0	2076.0	2044.0	2572.0	0.0	0.0	0.0	0.0	369970336.5
2020-06-30 07:32:21.150	2.0	61.0	-70.2	-2.6	-91.8	98837.4	405.0	0.0	12.697710514068604	0.0	0.0	-291.7	1272.1	-85612.0	0.0	0.0	0.0	0.0	2076.0	2044.0	2572.4	0.0	0.0	0.0	0.0	370020437.1
2020-06-30 07:32:21.200	2.0	61.0	-70.6	-3.0	-92.2	98837.1	405.0	0.0	12.687015438079834	0.0	0.0	-289.2	1270.4	-85616.0	0.0	0.0	0.0	0.0	2078.4	2042.8	2574.4	0.0	0.0	0.0	0.0	370070446.4
2020-06-30 07:32:21.250	2.0	61.0	-67.0	-3.0	-93.0	98847.0	405.0	0.0	12.672743797302246	0.0	0.0	-281.5	1268.5	-85619.25	0.0	0.0	0.0	0.0	2080.0	2044.0	2572.0	0.0	0.0	0.0	0.0	370105536.75
2020-06-30 07:32:21.300	2.0	61.0	-69.625	-5.125	-93.875	98840.25	405.0	0.0	12.659141182899475	0.0	0.0	-280.125	1269.625	-85625.5	0.0	0.0	0.0	0.0	2076.0	2044.0	2571.0	0.0	0.0	0.0	0.0	370170035.875
2020-06-30 07:32:21.350	2.0	61.0	-70.625	-4.625	-91.125	98843.625	405.25	0.0	12.652122616767883	0.0	0.0	-282.125	1269.875	-85629.875	0.0	0.0	0.0	0.0	2076.0	2044.0	2571.0	0.0	0.0	0.0	0.0	370217586.0
2020-06-30 07:32:21.400	2.0	61.0	-71.33333333333333	-1.3333333333333333	-93.55555555555556	98840.0	405.0	0.0	12.645388709174263	0.0	0.0	-283.3333333333333	1270.0	-85634.0	0.0	0.0	0.0	0.0	2076.0	2044.0	2571.5555555555557	0.0	0.0	0.0	0.0	370263254.2222222
2020-06-30 07:32:21.450	2.0	61.0	-71.5	-3.1666666666666665	-91.16666666666667	98839.0	405.0	0.0	12.638513247172037	0.0	0.0	-284.1666666666667	1271.0	-85638.33333333333	0.0	0.0	0.0	0.0	2076.0	2044.0	2572.0	0.0	0.0	0.0	0.0	370309127.1666667
2020-06-30 07:32:21.500	2.0	61.0	-69.54545454545455	-5.363636363636363	-91.18181818181819	98842.36363636363	405.6363636363636	0.0	12.629828799854625	0.0	0.0	-283.1818181818182	1272.0	-85643.90909090909	0.0	0.0	0.0	0.0	2076.0	2044.0	2573.818181818182	0.0	0.0	0.0	0.0	370367966.6363636
2020-06-30 07:32:21.550	2.0	61.0	-69.8	-3.4	-91.4	98840.2	405.4	0.0	12.62191743850708	0.0	0.0	-283.3	1273.8	-85650.1	0.0	0.0	0.0	0.0	2076.0	2044.0	2572.0	0.0	0.0	0.0	0.0	370421032.2
2020-06-30 07:32:21.600	2.0	61.0	-70.77777777777777	-2.7777777777777777	-90.33333333333333	98839.33333333333	405.77777777777777	0.0	12.614728927612305	0.0	0.0	-285.55555555555554	1274.3333333333333	-85654.88888888889	0.0	0.0	0.0	0.0	2076.0	2044.0	2572.0	0.0	0.0	0.0	0.0	370468576.5555556
2020-06-30 07:32:21.650	2.0	61.0	-67.9	-4.5	-91.9	98839.3	405.4	0.0	12.607556629180909	0.0	0.0	-286.5	1275.9	-85660.1	0.0	0.0	0.0	0.0	2076.0	2044.0	2572.0	0.0	0.0	0.0	0.0	370516183.0
2020-06-30 07:32:21.700	2.0	61.0	-69.66666666666667	-4.111111111111111	-93.44444444444444	98841.33333333333	406.0	0.0	12.599713431464302	0.0	0.0	-286.8888888888889	1276.2222222222222	-85665.77777777778	0.0	0.0	0.0	0.0	2076.0	2044.0	2572.0	0.0	0.0	0.0	0.0	370568175.7777778
2020-06-30 07:32:21.750	2.0	61.0	-73.8	-4.8	-93.6	98841.9	406.0	0.0	12.593316268920898	0.0	0.0	-286.8	1279.4	-85671.2	0.0	0.0	0.0	0.0	2076.0	2045.2	2572.8	0.0	0.0	0.0	0.0	370616375.2
2020-06-30 07:32:21.800	2.0	61.0	-72.3	-4.1	-92.7	98838.0	405.6	0.0	12.58628578186035	0.0	0.0	-287.6	1282.5	-85677.9	0.0	0.0	0.0	0.0	2076.0	2044.0	2571.2	0.0	0.0	0.0	0.0	370666405.8
2020-06-30 07:32:21.850	2.0	61.0	-69.3	-2.1	-91.3	98837.4	405.8	0.0	12.57952651977539	0.0	0.0	-289.4	1282.0	-85683.9	0.0	0.0	0.0	0.0	2075.2	2044.0	2571.6	0.0	0.0	0.0	0.0	370716506.4
2020-06-30 07:32:21.900	2.0	61.0	-69.4	-2.8	-92.8	98842.9	406.0	0.0	12.573707580566406	0.0	0.0	-292.3	1282.7	-85689.7	0.0	0.0	0.0	0.0	2076.0	2044.0	2572.0	0.0	0.0	0.0	0.0	370766576.7
2020-06-30 07:32:21.950	2.0	61.0	-71.27272727272727	-4.181818181818182	-92.0	98842.90909090909	406.0	0.0	12.565443472428756	0.0	0.0	-293.27272727272725	1282.909090909091	-85694.54545454546	0.0	0.0	0.0	0.0	2076.0	2044.0	2573.090909090909	0.0	0.0	0.0	0.0	370819163.45454544
2020-06-30 07:32:22.000	2.0	61.0	-71.0	-3.888888888888889	-92.77777777777777	98843.77777777778	406.0	0.0	12.556287129720053	0.0	0.0	-293.22222222222223	1280.4444444444443	-85699.66666666667	0.0	0.0	0.0	0.0	2077.777777777778	2044.0	2572.0	0.0	0.0	0.0	0.0	370869248.6666667
2020-06-30 07:32:22.050	2.0	61.0	-70.45454545454545	-2.4545454545454546	-93.0	98840.72727272728	406.0	0.0	12.544108997691762	0.0	0.0	-288.8181818181818	1278.6363636363637	-85702.72727272728	0.0	0.0	0.0	0.0	2076.3636363636365	2044.0	2572.7272727272725	0.0	0.0	0.0	0.0	370919322.09090906
2020-06-30 07:32:22.100	2.0	61.0	-71.22222222222223	-3.0	-91.66666666666667	98841.44444444444	406.0	0.0	12.534063551161024	0.0	0.0	-287.1111111111111	1276.2222222222222	-85706.33333333333	0.0	0.0	0.0	0.0	2076.4444444444443	2044.0	2575.1111111111113	0.0	0.0	0.0	0.0	370969458.2222222
2020-06-30 07:32:22.150	2.0	61.0	-70.6	-2.8	-92.6	98843.2	406.0	0.0	12.5262882232666	0.0	0.0	-288.8	1275.7	-85711.8	0.0	0.0	0.0	0.0	2076.0	2043.6	2572.8	0.0	0.0	0.0	0.0	371017003.9
2020-06-30 07:32:22.200	2.0	61.0	-71.7	-4.3	-94.7	98841.6	406.0	0.0	12.518424129486084	0.0	0.0	-289.9	1275.4	-85716.9	0.0	0.0	0.0	0.0	2076.0	2044.0	2572.0	0.0	0.0	0.0	0.0	371067110.7
2020-06-30 07:32:22.250	2.0	61.0	-70.125	-2.125	-93.125	98843.625	406.0	0.0	12.510051131248474	0.0	0.0	-291.0	1274.125	-85722.75	0.0	0.0	0.0	0.0	2076.0	2044.0	2572.0	0.0	0.0	0.0	0.0	371122153.75
2020-06-30 07:32:22.300	2.0	61.0	-69.6	-3.4	-93.0	98845.5	406.0	0.0	12.502527141571045	0.0	0.0	-291.1	1274.1	-85726.4	0.0	0.0	0.0	0.0	2076.4	2044.0	2574.4	0.0	0.0	0.0	0.0	371167162.6
2020-06-30 07:32:22.350	2.0	61.0	-70.1	-3.5	-92.7	98843.1	406.0	0.0	12.494486045837402	0.0	0.0	-292.2	1272.8	-85730.7	0.0	0.0	0.0	0.0	2075.2	2044.0	2572.0	0.0	0.0	0.0	0.0	371217354.8
2020-06-30 07:32:22.400	2.0	61.0	-71.5	-0.8333333333333334	-91.83333333333333	98840.16666666667	406.0	0.0	12.489301522572836	0.0	0.0	-296.8333333333333	1272.1666666666667	-85734.66666666667	0.0	0.0	0.0	0.0	2076.0	2044.0	2572.0	0.0	0.0	0.0	0.0	371268294.6666667
2020-06-30 07:32:22.450	2.0	61.0	-69.33333333333333	-4.0	-94.0	98840.33333333333	406.0	0.0	12.48236894607544	0.0	0.0	-297.0	1272.6666666666667	-85740.0	0.0	0.0	0.0	0.0	2076.0	2044.0	2572.0	0.0	0.0	0.0	0.0	371312499.5
2020-06-30 07:32:22.500	2.0	61.0	-71.2	-3.2	-92.4	98840.1	406.0	0.0	12.474062252044678	0.0	0.0	-298.2	1272.2	-85745.1	0.0	0.0	0.0	0.0	2076.0	2044.0	2574.0	0.0	0.0	0.0	0.0	371366125.0
2020-06-30 07:32:22.550	2.0	61.0	-71.0	-1.6	-91.2	98842.6	406.0	0.0	12.466116428375244	0.0	0.0	-297.6	1272.0	-85751.7	0.0	0.0	0.0	0.0	2076.0	2044.0	2572.0	0.0	0.0	0.0	0.0	371417656.9
2020-06-30 07:32:22.600	2.0	61.0	-72.88888888888889	-4.444444444444445	-91.11111111111111	98839.22222222222	406.0	0.0	12.458569526672363	0.0	0.0	-296.6666666666667	1272.3333333333333	-85756.11111111111	0.0	0.0	0.0	0.0	2076.0	2044.4444444444443	2570.222222222222	0.0	0.0	0.0	0.0	371468010.0
2020-06-30 07:32:22.650	2.0	61.0	-69.75	-5.75	-91.25	98841.0	406.0	0.0	12.451149463653564	0.0	0.0	-297.0	1271.875	-85760.375	0.0	0.0	0.0	0.0	2076.0	2044.0	2572.5	0.0	0.0	0.0	0.0	371517783.625
2020-06-30 07:32:22.700	2.0	61.0	-70.77777777777777	-3.2222222222222223	-92.77777777777777	98837.88888888889	406.0	0.0	12.44327449798584	0.0	0.0	-296.3333333333333	1272.2222222222222	-85765.55555555556	0.0	0.0	0.0	0.0	2076.0	2044.0	2574.222222222222	0.0	0.0	0.0	0.0	371569291.4444444
2020-06-30 07:32:22.750	2.0	61.0	-69.7	-3.5	-93.1	98838.2	406.0	0.0	12.435713386535644	0.0	0.0	-297.6	1272.2	-85770.2	0.0	0.0	0.0	0.0	2076.0	2044.0	2572.8	0.0	0.0	0.0	0.0	371617971.3
2020-06-30 07:32:22.800	2.0	61.0	-70.7	-3.7	-91.7	98836.6	406.0	0.0	12.428077697753906	0.0	0.0	-297.3	1271.4	-85775.0	0.0	0.0	0.0	0.0	2076.0	2044.0	2572.0	0.0	0.0	0.0	0.0	371668026.3
2020-06-30 07:32:22.850	2.0	61.0	-72.4	-2.8	-95.6	98838.6	406.0	0.0	12.420392036437988	0.0	0.0	-297.2	1269.6	-85781.4	0.0	0.0	0.0	0.0	2076.0	2044.0	2572.4	0.0	0.0	0.0	0.0	371718133.1
2020-06-30 07:32:22.900	2.0	61.0	-71.3	0.1	-91.7	98839.6	406.0	0.0	12.412730693817139	0.0	0.0	-296.7	1269.1	-85788.2	0.0	0.0	0.0	0.0	2076.0	2044.0	2572.4	0.0	0.0	0.0	0.0	371768276.5
2020-06-30 07:32:22.950	2.0	61.0	-68.5	-1.3	-91.1	98837.3	406.0	0.0	12.405146026611328	0.0	0.0	-296.0	1269.0	-85792.1	0.0	0.0	0.0	0.0	2076.0	2044.0	2572.4	0.0	0.0	0.0	0.0	371818303.8
2020-06-30 07:32:23.000	2.0	61.0	-70.4	-4.0	-91.6	98837.6	406.0	0.0	12.397521209716796	0.0	0.0	-296.8	1269.3	-85795.9	0.0	0.0	0.0	0.0	2076.0	2044.0	2575.6	0.0	0.0	0.0	0.0	371868358.9
2020-06-30 07:32:23.050	2.0	61.0	-70.0	-4.0	-91.4	98837.3	406.0	0.0	12.389901065826416	0.0	0.0	-297.0	1267.7	-85801.6	0.0	0.0	0.0	0.0	2076.0	2044.0	2573.2	0.0	0.0	0.0	0.0	371918514.3
2020-06-30 07:32:23.100	2.0	61.0	-71.6	-3.4	-92.0	98839.4	406.0	0.0	12.382351779937744	0.0	0.0	-297.0	1267.3	-85808.1	0.0	0.0	0.0	0.0	2076.0	2044.0	2572.4	0.0	0.0	0.0	0.0	371968554.4
2020-06-30 07:32:23.150	2.0	61.0	-70.9	-3.5	-91.7	98840.3	406.0	0.0	12.374189376831055	0.0	0.0	-296.4	1269.0	-85813.4	0.0	0.0	0.0	0.0	2076.4	2044.0	2573.2	0.0	0.0	0.0	0.0	372018685.4
2020-06-30 07:32:23.200	2.0	61.0	-67.4	-5.4	-91.2	98841.5	406.0	0.0	12.365745449066162	0.0	0.0	-295.9	1269.6	-85818.4	0.0	0.0	0.0	0.0	2076.0	2044.0	2571.6	0.0	0.0	0.0	0.0	372068712.8
2020-06-30 07:32:23.250	2.0	61.0	-71.6	-2.6	-92.8	98840.0	406.0	0.0	12.358173656463624	0.0	0.0	-296.0	1269.1	-85823.1	0.0	0.0	0.0	0.0	2076.0	2044.0	2572.8	0.0	0.0	0.0	0.0	372118795.3
2020-06-30 07:32:23.300	2.0	61.0	-70.4	-3.0	-91.6	98838.2	406.0	0.0	12.350626564025879	0.0	0.0	-295.8	1269.5	-85827.4	0.0	0.0	0.0	0.0	2076.0	2044.0	2572.0	0.0	0.0	0.0	0.0	372168838.1
2020-06-30 07:32:23.350	2.0	61.0	-70.3	-2.7	-89.9	98840.0	406.0	0.0	12.3431960105896	0.0	0.0	-294.9	1270.1	-85832.0	0.0	0.0	0.0	0.0	2076.0	2044.8	2572.0	0.0	0.0	0.0	0.0	372218975.4
2020-06-30 07:32:23.400	2.0	61.0	-69.6	-3.6	-92.6	98841.2	406.0	0.0	12.3366455078125	0.0	0.0	-294.0	1272.9	-85838.1	0.0	0.0	0.0	0.0	2076.0	2044.0	2573.2	0.0	0.0	0.0	0.0	372269021.1
2020-06-30 07:32:23.450	2.0	61.0	-71.5	-3.25	-92.25	98839.625	406.0	0.0	12.32946228981018	0.0	0.0	-293.25	1273.5	-85842.75	0.0	0.0	0.0	0.0	2076.0	2044.0	2573.5	0.0	0.0	0.0	0.0	372316604.0
2020-06-30 07:32:23.500	2.0	61.0	-68.0	-4.8	-92.4	98837.6	406.0	0.0	12.321981620788574	0.0	0.0	-293.2	1274.0	-85847.8	0.0	0.0	0.0	0.0	2076.0	2044.0	2572.0	0.0	0.0	0.0	0.0	372366759.8
2020-06-30 07:32:23.550	2.0	61.0	-71.0	-3.888888888888889	-91.66666666666667	98839.0	406.0	0.0	12.314281463623047	0.0	0.0	-293.6666666666667	1274.3333333333333	-85853.0	0.0	0.0	0.0	0.0	2076.0	2044.0	2571.5555555555557	0.0	0.0	0.0	0.0	372417873.5555556
2020-06-30 07:32:23.600	2.0	61.0	-68.16666666666667	-4.5	-92.16666666666667	98839.0	406.0	0.0	12.305225690205893	0.0	0.0	-292.5	1274.8333333333333	-85859.83333333333	0.0	0.0	0.0	0.0	2076.0	2044.0	2574.6666666666665	0.0	0.0	0.0	0.0	372478560.8333333
2020-06-30 07:32:23.650	2.0	61.0	-71.66666666666667	-4.0	-92.33333333333333	98840.5	406.0	0.0	12.29894765218099	0.0	0.0	-291.5	1274.8333333333333	-85865.5	0.0	0.0	0.0	0.0	2076.0	2044.0	2575.3333333333335	0.0	0.0	0.0	0.0	372521031.1666667
2020-06-30 07:32:23.700	2.0	61.0	-69.5	-4.166666666666667	-92.16666666666667	98832.0	406.0	0.0	12.290644645690918	0.0	0.0	-289.5	1271.8333333333333	-85872.0	0.0	0.0	0.0	0.0	2076.0	2044.0	2576.0	0.0	0.0	0.0	0.0	372577905.8333333
2020-06-30 07:32:23.750	2.0	61.0	-68.57142857142857	-1.7142857142857142	-91.42857142857143	98835.28571428571	406.0	0.0	12.284192766462054	0.0	0.0	-289.2857142857143	1270.4285714285713	-85876.28571428571	0.0	0.0	0.0	0.0	2076.0	2044.0	2573.714285714286	0.0	0.0	0.0	0.0	372622122.14285713
2020-06-30 07:32:23.800	2.0	61.0	-73.33333333333333	-3.6666666666666665	-92.0	98838.5	406.0	0.0	12.276779174804688	0.0	0.0	-288.1666666666667	1270.3333333333333	-85881.66666666667	0.0	0.0	0.0	0.0	2076.0	2044.0	2574.0	0.0	0.0	0.0	0.0	372673090.1666667
2020-06-30 07:32:23.850	2.0	61.0	-69.42857142857143	-4.857142857142857	-89.42857142857143	98838.71428571429	406.0	0.0	12.269112586975098	0.0	0.0	-288.85714285714283	1270.857142857143	-85887.14285714286	0.0	0.0	0.0	0.0	2076.0	2044.0	2572.5714285714284	0.0	0.0	0.0	0.0	372725825.28571427
2020-06-30 07:32:23.900	2.0	61.0	-68.77777777777777	-5.222222222222222	-93.22222222222223	98840.33333333333	406.0	0.0	12.260168499416775	0.0	0.0	-287.0	1269.7777777777778	-85892.44444444444	0.0	0.0	0.0	0.0	2078.222222222222	2044.0	2572.0	0.0	0.0	0.0	0.0	372767330.0
2020-06-30 07:32:23.950	2.0	61.0	-70.22222222222223	-4.888888888888889	-95.11111111111111	98838.66666666667	406.0	0.0	12.24854310353597	0.0	0.0	-283.3333333333333	1269.4444444444443	-85899.66666666667	0.0	0.0	0.0	0.0	2076.0	2044.4444444444443	2572.0	0.0	0.0	0.0	0.0	372821837.8888889
2020-06-30 07:32:24.000	2.0	61.0	-71.11111111111111	-3.3333333333333335	-91.77777777777777	98836.66666666667	406.0	0.0	12.242259661356607	0.0	0.0	-284.55555555555554	1270.3333333333333	-85904.55555555556	0.0	0.0	0.0	0.0	2076.0	2044.0	2572.4444444444443	0.0	0.0	0.0	0.0	372867498.8888889
2020-06-30 07:32:24.050	2.0	61.0	-68.77777777777777	-3.888888888888889	-92.55555555555556	98842.33333333333	406.0	0.0	12.232989629109701	0.0	0.0	-282.55555555555554	1271.0	-85908.66666666667	0.0	0.0	0.0	0.0	2077.3333333333335	2044.0	2574.222222222222	0.0	0.0	0.0	0.0	372913702.5555556
2020-06-30 07:32:24.100	2.0	61.0	-70.1	-2.7	-91.9	98834.9	406.0	0.0	12.223585510253907	0.0	0.0	-281.5	1269.5	-85913.9	0.0	0.0	0.0	0.0	2076.0	2044.0	2573.2	0.0	0.0	0.0	0.0	372970196.2
2020-06-30 07:32:24.150	2.0	61.0	-71.1	-2.7	-92.5	98835.8	406.0	0.0	12.216570854187012	0.0	0.0	-282.6	1269.0	-85919.2	0.0	0.0	0.0	0.0	2076.4	2044.0	2572.0	0.0	0.0	0.0	0.0	373020272.2
2020-06-30 07:32:24.200	2.0	61.0	-66.25	-3.5	-94.25	98840.375	406.0	0.0	12.207812905311584	0.0	0.0	-281.5	1268.25	-85924.0	0.0	0.0	0.0	0.0	2076.5	2044.0	2572.0	0.0	0.0	0.0	0.0	373067897.25
2020-06-30 07:32:24.250	2.0	61.0	-69.81818181818181	-2.909090909090909	-91.27272727272727	98841.36363636363	406.0	0.0	12.199847481467508	0.0	0.0	-280.0	1270.5454545454545	-85929.54545454546	0.0	0.0	0.0	0.0	2076.3636363636365	2044.0	2572.3636363636365	0.0	0.0	0.0	0.0	373117994.45454544
2020-06-30 07:32:24.300	2.0	61.0	-71.9	-5.5	-91.5	98843.0	406.0	0.0	12.191445446014404	0.0	0.0	-279.7	1270.8	-85934.9	0.0	0.0	0.0	0.0	2076.0	2044.0	2574.8	0.0	0.0	0.0	0.0	373170501.2
2020-06-30 07:32:24.350	2.0	61.0	-72.1	-2.5	-92.3	98840.0	406.2	0.0	12.184483623504638	0.0	0.0	-281.2	1271.5	-85940.7	0.0	0.0	0.0	0.0	2076.0	2044.0	2572.4	0.0	0.0	0.0	0.0	373220656.8
2020-06-30 07:32:24.400	2.0	61.0	-70.5	-3.7	-94.3	98840.6	406.0	0.0	12.177572536468507	0.0	0.0	-281.2	1272.1	-85946.4	0.0	0.0	0.0	0.0	2076.0	2044.0	2572.8	0.0	0.0	0.0	0.0	373270672.1
2020-06-30 07:32:24.450	2.0	61.0	-69.66666666666667	-3.0	-93.22222222222223	98843.0	406.22222222222223	0.0	12.170075310601128	0.0	0.0	-282.1111111111111	1270.4444444444443	-85950.33333333333	0.0	0.0	0.0	0.0	2076.0	2042.6666666666667	2572.0	0.0	0.0	0.0	0.0	373318284.2222222
2020-06-30 07:32:24.500	2.0	61.0	-72.0	-4.363636363636363	-90.9090909090909	98840.27272727272	406.54545454545456	0.0	12.162355769764293	0.0	0.0	-282.90909090909093	1268.8181818181818	-85954.45454545454	0.0	0.0	0.0	0.0	2076.7272727272725	2044.0	2572.0	0.0	0.0	0.0	0.0	373368341.09090906
2020-06-30 07:32:24.550	2.0	61.0	-68.88888888888889	-5.777777777777778	-94.66666666666667	98839.66666666667	406.3333333333333	0.0	12.1475797229343	0.0	0.0	-277.1111111111111	1268.7777777777778	-85959.33333333333	0.0	0.0	0.0	0.0	2079.1111111111113	2044.0	2572.0	0.0	0.0	0.0	0.0	373418524.3333333
2020-06-30 07:32:24.600	2.0	61.0	-72.72727272727273	-2.5454545454545454	-93.0909090909091	98840.54545454546	406.6363636363636	0.0	12.135616996071555	0.0	0.0	-274.27272727272725	1268.2727272727273	-85964.0	0.0	0.0	0.0	0.0	2076.0	2043.2727272727273	2572.0	0.0	0.0	0.0	0.0	373468483.09090906
2020-06-30 07:32:24.650	2.0	61.0	-71.11111111111111	-1.7777777777777777	-92.44444444444444	98839.66666666667	406.6666666666667	0.0	12.12810950809055	0.0	0.0	-276.0	1267.2222222222222	-85969.33333333333	0.0	0.0	0.0	0.0	2076.0	2044.0	2572.0	0.0	0.0	0.0	0.0	373520246.3333333
2020-06-30 07:32:24.700	2.0	61.0	-71.8	-3.8	-91.0	98835.8	407.0	0.0	12.121056938171387	0.0	0.0	-275.2	1265.8	-85975.0	0.0	0.0	0.0	0.0	2076.0	2044.0	2575.2	0.0	0.0	0.0	0.0	373573784.8
2020-06-30 07:32:24.750	2.0	61.0	-69.5	-4.166666666666667	-93.16666666666667	98844.0	406.8333333333333	0.0	12.112959861755371	0.0	0.0	-274.6666666666667	1264.6666666666667	-85980.83333333333	0.0	0.0	0.0	0.0	2078.0	2044.0	2572.6666666666665	0.0	0.0	0.0	0.0	373622934.3333333
2020-06-30 07:32:24.800	2.0	61.0	-69.25	-3.75	-93.25	98845.25	407.0	0.0	12.097841024398804	0.0	0.0	-265.25	1264.0	-85985.75	0.0	0.0	0.0	0.0	2079.0	2044.0	2572.0	0.0	0.0	0.0	0.0	373665015.75
2020-06-30 07:32:24.850	2.0	61.0	-71.5	-3.8333333333333335	-93.5	98840.0	407.0	0.0	12.087051232655844	0.0	0.0	-262.5	1263.8333333333333	-85992.33333333333	0.0	0.0	0.0	0.0	2076.0	2044.0	2571.3333333333335	0.0	0.0	0.0	0.0	373716440.5
2020-06-30 07:32:24.900	2.0	61.0	-70.22222222222223	-4.666666666666667	-90.88888888888889	98840.33333333333	407.0	0.0	12.080799314710829	0.0	0.0	-263.3333333333333	1262.4444444444443	-85997.66666666667	0.0	0.0	0.0	0.0	2076.0	2043.5555555555557	2572.0	0.0	0.0	0.0	0.0	373765651.5555556
2020-06-30 07:32:24.950	2.0	61.0	-69.4	-2.6	-91.8	98834.9	406.9	0.0	12.073587894439697	0.0	0.0	-263.8	1260.7	-86003.1	0.0	0.0	0.0	0.0	2076.0	2044.0	2572.4	0.0	0.0	0.0	0.0	373816628.5
2020-06-30 07:32:25.000	2.0	61.0	-70.8	-3.2	-94.0	98834.1	406.9	0.0	12.067403888702392	0.0	0.0	-264.1	1262.5	-86008.6	0.0	0.0	0.0	0.0	2076.0	2044.0	2572.0	0.0	0.0	0.0	0.0	373866686.5
2020-06-30 07:32:25.050	2.0	61.0	-73.0	-4.454545454545454	-93.18181818181819	98837.54545454546	407.0	0.0	12.060843814503063	0.0	0.0	-264.0	1262.8181818181818	-86014.45454545454	0.0	0.0	0.0	0.0	2076.0	2044.0	2572.0	0.0	0.0	0.0	0.0	373919230.6363636
2020-06-30 07:32:25.100	2.0	61.0	-71.625	-3.375	-92.125	98840.0	407.0	0.0	12.054982781410217	0.0	0.0	-262.5	1262.75	-86018.75	0.0	0.0	0.0	0.0	2076.0	2044.0	2572.5	0.0	0.0	0.0	0.0	373966865.125
2020-06-30 07:32:25.150	2.0	61.0	-69.8	-2.2	-95.0	98838.5	407.0	0.0	12.048804759979248	0.0	0.0	-262.2	1263.2	-86024.6	0.0	0.0	0.0	0.0	2076.0	2044.0	2571.2	0.0	0.0	0.0	0.0	374016891.0
2020-06-30 07:32:25.200	2.0	61.0	-69.6	-5.6	-94.0	98842.1	407.0	0.0	12.042587566375733	0.0	0.0	-262.6	1263.0	-86028.2	0.0	0.0	0.0	0.0	2076.0	2044.0	2573.2	0.0	0.0	0.0	0.0	374066982.5
2020-06-30 07:32:25.250	2.0	61.0	-68.77777777777777	-5.222222222222222	-91.44444444444444	98837.0	407.0	0.0	12.036152839660645	0.0	0.0	-263.8888888888889	1262.4444444444443	-86032.66666666667	0.0	0.0	0.0	0.0	2076.0	2044.0	2574.222222222222	0.0	0.0	0.0	0.0	374119007.8888889
2020-06-30 07:32:25.300	2.0	61.0	-71.625	-2.125	-94.125	98840.375	407.0	0.0	12.02934193611145	0.0	0.0	-264.0	1261.125	-86037.75	0.0	0.0	0.0	0.0	2076.0	2044.0	2572.0	0.0	0.0	0.0	0.0	374174689.75
2020-06-30 07:32:25.350	2.0	61.0	-70.22222222222223	-3.5555555555555554	-91.33333333333333	98840.33333333333	407.0	0.0	12.023194207085503	0.0	0.0	-265.0	1259.6666666666667	-86043.33333333333	0.0	0.0	0.0	0.0	2076.0	2044.0	2572.4444444444443	0.0	0.0	0.0	0.0	374224242.6666667
2020-06-30 07:32:25.400	2.0	61.0	-70.11111111111111	-5.222222222222222	-91.22222222222223	98839.33333333333	407.0	0.0	12.017501937018501	0.0	0.0	-266.1111111111111	1259.0	-86047.44444444444	0.0	0.0	0.0	0.0	2076.0	2044.0	2572.0	0.0	0.0	0.0	0.0	374269852.7777778
2020-06-30 07:32:25.450	2.0	61.0	-72.2	-3.8	-92.2	98840.0	407.0	0.0	12.011603260040284	0.0	0.0	-267.8	1259.4	-86052.3	0.0	0.0	0.0	0.0	2076.0	2044.0	2573.6	0.0	0.0	0.0	0.0	374317382.4
2020-06-30 07:32:25.500	2.0	61.0	-70.22222222222223	-4.0	-92.0	98839.33333333333	407.0	0.0	12.005555364820692	0.0	0.0	-270.44444444444446	1259.0	-86056.88888888889	0.0	0.0	0.0	0.0	2076.0	2044.0	2572.8888888888887	0.0	0.0	0.0	0.0	374364983.1111111
2020-06-30 07:32:25.550	2.0	61.0	-72.6	-4.2	-93.0	98834.6	407.0	0.0	11.999615478515626	0.0	0.0	-273.4	1257.8	-86061.2	0.0	0.0	0.0	0.0	2076.0	2044.0	2572.0	0.0	0.0	0.0	0.0	374412023.4
2020-06-30 07:32:25.600	2.0	61.0	-69.25	-3.25	-90.5	98835.875	407.0	0.0	11.991659045219421	0.0	0.0	-273.75	1258.375	-86068.375	0.0	0.0	0.0	0.0	2076.0	2044.0	2572.0	0.0	0.0	0.0	0.0	374474566.875
2020-06-30 07:32:25.650	2.0	61.0	-70.2	-4.6	-94.0	98838.5	407.0	0.0	11.985335063934325	0.0	0.0	-274.5	1258.6	-86072.4	0.0	0.0	0.0	0.0	2076.8	2044.0	2572.8	0.0	0.0	0.0	0.0	374522707.6
2020-06-30 07:32:25.700	2.0	61.0	-70.88888888888889	-4.444444444444445	-92.88888888888889	98837.33333333333	407.0	0.0	11.975424448649088	0.0	0.0	-272.0	1259.5555555555557	-86075.55555555556	0.0	0.0	0.0	0.0	2076.4444444444443	2044.0	2576.0	0.0	0.0	0.0	0.0	374570379.8888889
2020-06-30 07:32:25.750	2.0	61.0	-70.0	-3.2	-93.6	98837.0	407.0	0.0	11.96921682357788	0.0	0.0	-270.8	1259.1	-86080.4	0.0	0.0	0.0	0.0	2076.0	2044.0	2573.2	0.0	0.0	0.0	0.0	374617898.3
2020-06-30 07:32:25.800	2.0	61.0	-71.18181818181819	-1.7272727272727273	-92.0909090909091	98834.27272727272	407.0	0.0	11.962573831731623	0.0	0.0	-271.09090909090907	1258.4545454545455	-86085.36363636363	0.0	0.0	0.0	0.0	2076.0	2044.0	2573.090909090909	0.0	0.0	0.0	0.0	374670445.72727275
2020-06-30 07:32:25.850	2.0	61.0	-71.3	-6.5	-93.1	98838.5	407.0	0.0	11.955953884124757	0.0	0.0	-271.7	1258.1	-86089.2	0.0	0.0	0.0	0.0	2076.0	2044.0	2572.0	0.0	0.0	0.0	0.0	374723046.3
2020-06-30 07:32:25.900	2.0	61.0	-70.44444444444444	-5.555555555555555	-90.88888888888889	98836.0	407.0	0.0	11.949986139933268	0.0	0.0	-272.8888888888889	1258.111111111111	-86093.66666666667	0.0	0.0	0.0	0.0	2075.5555555555557	2044.0	2572.4444444444443	0.0	0.0	0.0	0.0	374770595.3333333
2020-06-30 07:32:25.950	2.0	61.0	-69.8	-3.4	-91.4	98839.4	407.0	0.0	11.94529676437378	0.0	0.0	-274.2	1257.0	-86098.8	0.0	0.0	0.0	0.0	2076.0	2044.0	2573.2	0.0	0.0	0.0	0.0	374818252.0
2020-06-30 07:32:26.000	2.0	61.0	-68.4	-1.6	-92.4	98837.6	407.0	0.0	11.93895902633667	0.0	0.0	-273.5	1257.0	-86102.4	0.0	0.0	0.0	0.0	2076.0	2044.0	2572.0	0.0	0.0	0.0	0.0	374868292.0
2020-06-30 07:32:26.050	2.0	61.0	-69.77777777777777	-5.333333333333333	-92.44444444444444	98837.0	407.0	0.0	11.932391908433702	0.0	0.0	-272.6666666666667	1257.0	-86106.33333333333	0.0	0.0	0.0	0.0	2076.0	2044.0	2572.0	0.0	0.0	0.0	0.0	374920301.2222222
2020-06-30 07:32:26.100	2.0	61.0	-68.88888888888889	-4.444444444444445	-92.22222222222223	98836.33333333333	407.0	0.0	11.925233417087131	0.0	0.0	-271.6666666666667	1256.2222222222222	-86110.22222222222	0.0	0.0	0.0	0.0	2076.0	2042.6666666666667	2572.4444444444443	0.0	0.0	0.0	0.0	374968732.4444444
2020-06-30 07:32:26.150	2.0	61.0	-70.9090909090909	-2.909090909090909	-91.27272727272727	98832.36363636363	407.0	0.0	11.91832395033403	0.0	0.0	-270.72727272727275	1256.0	-86115.54545454546	0.0	0.0	0.0	0.0	2076.0	2044.0	2572.0	0.0	0.0	0.0	0.0	375021078.90909094
2020-06-30 07:32:26.200	2.0	61.0	-70.75	-2.25	-92.25	98831.125	407.0	0.0	11.912028551101685	0.0	0.0	-271.0	1256.25	-86120.0	0.0	0.0	0.0	0.0	2075.5	2044.0	2572.0	0.0	0.0	0.0	0.0	375071799.75
2020-06-30 07:32:26.250	2.0	61.0	-70.44444444444444	-4.222222222222222	-92.88888888888889	98835.66666666667	407.0	0.0	11.907240125868055	0.0	0.0	-272.1111111111111	1256.2222222222222	-86126.11111111111	0.0	0.0	0.0	0.0	2076.0	2044.0	2572.0	0.0	0.0	0.0	0.0	375121245.8888889
2020-06-30 07:32:26.300	2.0	61.0	-69.2	-5.2	-95.2	98837.6	407.0	0.0	11.901304244995117	0.0	0.0	-271.4	1255.7	-86132.4	0.0	0.0	0.0	0.0	2076.0	2044.0	2572.4	0.0	0.0	0.0	0.0	375168755.7
2020-06-30 07:32:26.350	2.0	61.0	-70.75	-6.25	-93.25	98839.625	407.0	0.0	11.89513647556305	0.0	0.0	-270.5	1256.0	-86138.25	0.0	0.0	0.0	0.0	2076.0	2044.0	2574.0	0.0	0.0	0.0	0.0	375218932.75
2020-06-30 07:32:26.400	2.0	61.0	-69.77777777777777	-0.4444444444444444	-91.33333333333333	98837.33333333333	407.0	0.0	11.888978004455566	0.0	0.0	-271.22222222222223	1255.4444444444443	-86143.33333333333	0.0	0.0	0.0	0.0	2076.0	2044.0	2572.0	0.0	0.0	0.0	0.0	375268140.4444444
2020-06-30 07:32:26.450	2.0	61.0	-70.4	-4.4	-92.4	98834.3	407.0	0.0	11.882646942138672	0.0	0.0	-272.0	1257.0	-86147.9	0.0	0.0	0.0	0.0	2076.0	2044.0	2572.0	0.0	0.0	0.0	0.0	375319024.2
2020-06-30 07:32:26.500	2.0	61.0	-71.0	-4.0	-91.0	98835.5	407.0	0.0	11.876368045806885	0.0	0.0	-273.625	1257.0	-86152.25	0.0	0.0	0.0	0.0	2076.0	2044.0	2571.5	0.0	0.0	0.0	0.0	375369163.125
2020-06-30 07:32:26.550	2.0	61.0	-68.0	-3.2	-92.0	98837.0	407.0	0.0	11.869993495941163	0.0	0.0	-275.8	1257.2	-86156.2	0.0	0.0	0.0	0.0	2076.0	2044.0	2571.6	0.0	0.0	0.0	0.0	375419234.7
2020-06-30 07:32:26.600	2.0	61.0	-69.6	-3.6	-91.2	98836.4	407.0	0.0	11.863687801361085	0.0	0.0	-276.0	1257.7	-86160.7	0.0	0.0	0.0	0.0	2076.0	2044.0	2572.4	0.0	0.0	0.0	0.0	375469350.7
2020-06-30 07:32:26.650	2.0	61.0	-68.8	-5.2	-93.6	98841.2	407.0	0.0	11.856653881072997	0.0	0.0	-275.9	1257.4	-86165.8	0.0	0.0	0.0	0.0	2076.4	2044.0	2572.0	0.0	0.0	0.0	0.0	375519350.8
2020-06-30 07:32:26.700	2.0	61.0	-70.8	-2.8	-92.0	98836.4	407.0	0.0	11.849627780914307	0.0	0.0	-275.8	1257.6	-86169.9	0.0	0.0	0.0	0.0	2076.0	2044.0	2572.0	0.0	0.0	0.0	0.0	375569466.6
2020-06-30 07:32:26.750	2.0	61.0	-69.6	-2.0	-90.0	98838.8	407.0	0.0	11.843189811706543	0.0	0.0	-276.4	1258.4	-86175.6	0.0	0.0	0.0	0.0	2076.0	2044.0	2573.2	0.0	0.0	0.0	0.0	375619536.8
2020-06-30 07:32:26.800	2.0	61.0	-69.2	-4.8	-89.6	98835.8	407.0	0.0	11.836899471282958	0.0	0.0	-276.0	1259.3	-86179.5	0.0	0.0	0.0	0.0	2076.0	2044.0	2572.0	0.0	0.0	0.0	0.0	375669674.2
2020-06-30 07:32:26.850	2.0	61.0	-69.66666666666667	-4.111111111111111	-93.0	98836.66666666667	407.0	0.0	11.83083004421658	0.0	0.0	-276.0	1259.7777777777778	-86185.33333333333	0.0	0.0	0.0	0.0	2076.0	2044.0	2572.0	0.0	0.0	0.0	0.0	375717196.5555556
2020-06-30 07:32:26.900	2.0	61.0	-71.0	-2.4545454545454546	-91.9090909090909	98835.09090909091	407.0	0.0	11.82442248951305	0.0	0.0	-277.72727272727275	1259.090909090909	-86191.63636363637	0.0	0.0	0.0	0.0	2076.0	2043.6363636363637	2572.0	0.0	0.0	0.0	0.0	375767350.1818182
2020-06-30 07:32:26.950	2.0	61.0	-68.0	-3.6	-92.0	98837.0	407.0	0.0	11.817187595367432	0.0	0.0	-280.6	1257.0	-86197.9	0.0	0.0	0.0	0.0	2076.0	2044.0	2572.8	0.0	0.0	0.0	0.0	375819884.7
2020-06-30 07:32:27.000	2.0	61.0	-70.4	-2.8	-93.6	98837.6	407.0	0.0	11.810619163513184	0.0	0.0	-280.8	1256.9	-86202.9	0.0	0.0	0.0	0.0	2076.4	2043.2	2572.0	0.0	0.0	0.0	0.0	375869961.0
2020-06-30 07:32:27.050	2.0	61.0	-69.55555555555556	-3.3333333333333335	-89.55555555555556	98837.66666666667	407.0	0.0	11.802346971299913	0.0	0.0	-279.8888888888889	1254.111111111111	-86207.22222222222	0.0	0.0	0.0	0.0	2076.0	2044.0	2572.0	0.0	0.0	0.0	0.0	375917557.8888889
2020-06-30 07:32:27.100	2.0	61.0	-70.54545454545455	-4.363636363636363	-90.54545454545455	98835.0	407.0	0.0	11.795907454057174	0.0	0.0	-280.72727272727275	1253.2727272727273	-86211.72727272728	0.0	0.0	0.0	0.0	2076.0	2043.6363636363637	2572.0	0.0	0.0	0.0	0.0	375967620.27272725
2020-06-30 07:32:27.150	2.0	61.0	-68.33333333333333	-3.0	-92.33333333333333	98834.66666666667	407.0	0.0	11.788064532809788	0.0	0.0	-280.6666666666667	1248.5555555555557	-86216.0	0.0	0.0	0.0	0.0	2076.0	2042.6666666666667	2572.0	0.0	0.0	0.0	0.0	376017699.5555556
2020-06-30 07:32:27.200	2.0	61.0	-72.63636363636364	-5.363636363636363	-93.72727272727273	98840.81818181818	407.0	0.0	11.781230926513672	0.0	0.0	-281.72727272727275	1247.4545454545455	-86220.72727272728	0.0	0.0	0.0	0.0	2076.0	2043.6363636363637	2571.6363636363635	0.0	0.0	0.0	0.0	376067781.6363636
2020-06-30 07:32:27.250	2.0	61.0	-66.8	-6.4	-91.6	98837.6	407.0	0.0	11.773753929138184	0.0	0.0	-281.8	1246.7	-86225.8	0.0	0.0	0.0	0.0	2076.0	2043.6	2573.2	0.0	0.0	0.0	0.0	376120385.2
2020-06-30 07:32:27.300	2.0	61.0	-70.77777777777777	-4.777777777777778	-91.22222222222223	98837.0	407.0	0.0	11.767549514770508	0.0	0.0	-282.0	1248.0	-86230.88888888889	0.0	0.0	0.0	0.0	2076.0	2044.0	2576.0	0.0	0.0	0.0	0.0	376169036.3333333
2020-06-30 07:32:27.350	2.0	61.0	-70.55555555555556	-2.5555555555555554	-91.44444444444444	98839.0	407.22222222222223	0.0	11.761408064100477	0.0	0.0	-282.0	1248.2222222222222	-86235.88888888889	0.0	0.0	0.0	0.0	2076.0	2044.0	2572.0	0.0	0.0	0.0	0.0	376218027.1111111
2020-06-30 07:32:27.400	2.0	61.0	-67.4	-1.8	-92.4	98835.8	407.0	0.0	11.754739379882812	0.0	0.0	-283.0	1249.0	-86239.5	0.0	0.0	0.0	0.0	2076.0	2044.0	2572.0	0.0	0.0	0.0	0.0	376270171.6
2020-06-30 07:32:27.450	2.0	61.0	-69.11111111111111	-4.888888888888889	-92.22222222222223	98831.33333333333	407.0	0.0	11.748735427856445	0.0	0.0	-282.0	1248.0	-86242.77777777778	0.0	0.0	0.0	0.0	2076.0	2044.0	2572.0	0.0	0.0	0.0	0.0	376318233.3333333
2020-06-30 07:32:27.500	2.0	61.0	-69.9	-5.1	-94.7	98837.6	407.0	0.0	11.74272289276123	0.0	0.0	-281.6	1247.8	-86246.9	0.0	0.0	0.0	0.0	2076.0	2044.0	2574.0	0.0	0.0	0.0	0.0	376365786.2
2020-06-30 07:32:27.550	2.0	61.0	-67.375	-3.875	-92.625	98835.5	407.0	0.0	11.736660718917847	0.0	0.0	-282.5	1249.0	-86250.5	0.0	0.0	0.0	0.0	2076.0	2044.0	2572.0	0.0	0.0	0.0	0.0	376413443.875
2020-06-30 07:32:27.600	2.0	61.0	-69.72727272727273	-4.090909090909091	-90.27272727272727	98833.45454545454	407.0	0.0	11.729705203663219	0.0	0.0	-282.27272727272725	1250.2727272727273	-86255.27272727272	0.0	0.0	0.0	0.0	2076.0	2044.0	2572.0	0.0	0.0	0.0	0.0	376468472.0
2020-06-30 07:32:27.650	2.0	61.0	-69.625	-2.125	-92.375	98829.0	407.0	0.0	11.722546458244324	0.0	0.0	-280.5	1250.75	-86261.125	0.0	0.0	0.0	0.0	2076.0	2044.0	2572.0	0.0	0.0	0.0	0.0	376519141.625
2020-06-30 07:32:27.700	2.0	61.0	-70.9	-2.1	-91.9	98833.1	407.2	0.0	11.716077613830567	0.0	0.0	-279.4	1251.1	-86267.5	0.0	0.0	0.0	0.0	2076.0	2044.0	2574.0	0.0	0.0	0.0	0.0	376566170.8
2020-06-30 07:32:27.750	2.0	61.0	-72.0	-0.2857142857142857	-91.14285714285714	98829.71428571429	407.42857142857144	0.0	11.710753168378558	0.0	0.0	-280.0	1251.0	-86273.14285714286	0.0	0.0	0.0	0.0	2076.0	2044.0	2572.0	0.0	0.0	0.0	0.0	376608668.28571427
2020-06-30 07:32:27.800	2.0	61.0	-71.0	-4.333333333333333	-90.83333333333333	98828.83333333333	407.25	0.0	11.703192234039307	0.0	0.0	-280.75	1250.6666666666667	-86279.66666666667	0.0	0.0	0.0	0.0	2076.0	2043.6666666666667	2574.3333333333335	0.0	0.0	0.0	0.0	376665435.3333333
2020-06-30 07:32:27.850	2.0	61.0	-71.66666666666667	-1.8888888888888888	-90.77777777777777	98829.22222222222	407.6666666666667	0.0	11.694236225552029	0.0	0.0	-280.22222222222223	1251.6666666666667	-86287.0	0.0	0.0	0.0	0.0	2076.8888888888887	2044.0	2572.0	0.0	0.0	0.0	0.0	376718895.2222222
2020-06-30 07:32:27.900	2.0	61.0	-68.22222222222223	-3.7777777777777777	-90.88888888888889	98830.44444444444	407.77777777777777	0.0	11.687193976508247	0.0	0.0	-277.8888888888889	1252.5555555555557	-86294.44444444444	0.0	0.0	0.0	0.0	2076.0	2044.0	2572.8888888888887	0.0	0.0	0.0	0.0	376771741.6666667
2020-06-30 07:32:27.950	2.0	61.0	-71.22222222222223	-3.6666666666666665	-90.77777777777777	98829.66666666667	407.55555555555554	0.0	11.68120331234402	0.0	0.0	-277.22222222222223	1254.2222222222222	-86299.55555555556	0.0	0.0	0.0	0.0	2076.0	2044.0	2573.3333333333335	0.0	0.0	0.0	0.0	376820162.8888889
2020-06-30 07:32:28.000	2.0	61.0	-71.0	-5.0	-92.2	98831.3	408.0	0.0	11.67479591369629	0.0	0.0	-277.4	1255.2	-86304.9	0.0	0.0	0.0	0.0	2076.0	2044.0	2572.8	0.0	0.0	0.0	0.0	376871572.4
2020-06-30 07:32:28.050	2.0	61.0	-69.11111111111111	-1.1111111111111112	-92.66666666666667	98833.66666666667	408.0	0.0	11.668928888108995	0.0	0.0	-277.6666666666667	1256.888888888889	-86311.22222222222	0.0	0.0	0.0	0.0	2076.0	2044.0	2573.777777777778	0.0	0.0	0.0	0.0	376919212.6666667
2020-06-30 07:32:28.100	2.0	61.0	-69.77777777777777	-3.3333333333333335	-91.55555555555556	98835.0	408.0	0.0	11.662885242038303	0.0	0.0	-278.22222222222223	1257.6666666666667	-86316.22222222222	0.0	0.0	0.0	0.0	2076.0	2044.0	2573.777777777778	0.0	0.0	0.0	0.0	376967583.0
2020-06-30 07:32:28.150	2.0	61.0	-68.83333333333333	-1.8333333333333333	-92.16666666666667	98837.0	408.0	0.0	11.656291643778482	0.0	0.0	-279.0	1259.0	-86320.5	0.0	0.0	0.0	0.0	2076.0	2044.0	2572.0	0.0	0.0	0.0	0.0	377020253.0
2020-06-30 07:32:28.200	2.0	61.0	-69.6	-4.0	-90.2	98836.1	408.0	0.0	11.650434303283692	0.0	0.0	-280.6	1258.6	-86325.8	0.0	0.0	0.0	0.0	2076.0	2044.0	2571.6	0.0	0.0	0.0	0.0	377066988.6
2020-06-30 07:32:28.250	2.0	61.0	-70.55555555555556	-1.6666666666666667	-92.55555555555556	98832.11111111111	408.0	0.0	11.643784099155003	0.0	0.0	-281.44444444444446	1257.0	-86330.22222222222	0.0	0.0	0.0	0.0	2076.0	2044.0	2572.0	0.0	0.0	0.0	0.0	377119564.1111111
2020-06-30 07:32:28.300	2.0	61.0	-67.3	-2.7	-92.5	98834.0	408.0	0.0	11.63777322769165	0.0	0.0	-282.2	1257.2	-86334.9	0.0	0.0	0.0	0.0	2076.0	2044.0	2572.0	0.0	0.0	0.0	0.0	377167061.9
